           ADaM Structure for Occurrence Data
            (OCCDS) Implementation Guide
                                       Version 1.1 (Final)
                                      Developed by the
                               CDISC Analysis Data Model Team




                                                Notes to Readers
    •   This is the final Version 1.1 of the ADaM Structure for Occurrence Data (OCCDS) Implementation
        Guide.
    •   This structure is based on the Analysis Data Model (ADaM) v2.1 and the ADaM Implementation Guide
        (ADaMIG) v1.2.




Revision History

Date               Version
2021-11-29         1.1 Final
2016-02-16         1.0 Final




See Appendix D for representations and warranties, limitations of liability, and disclaimers.

CDISC ADaM Structure for Occurrence Data (OCCDS) Implementation Guide (1.1 Final)



                                                                       CONTENTS
1       INTRODUCTION ................................................................................................................. 4
1.1 PURPOSE ................................................................................................................................................................ 4
  1.1.1     Background ............................................................................................................................................4
  1.1.2     Principles ................................................................................................................................................ 4
  1.1.3     What's New ............................................................................................................................................5
1.2 POINTS TO CONSIDER WHEN INTERPRETING THIS DOCUMENT .............................................................................. 6
1.3 CONVENTIONS USED IN THIS DOCUMENT .............................................................................................................. 7

2       DATA ANALYSIS AND CODING ..................................................................................... 8
2.1 STATISTICAL ANALYSIS ........................................................................................................................................8
2.2 DICTIONARY CODING ............................................................................................................................................8
  2.2.1     Recoding of Occurrence Data ................................................................................................................ 8
2.3 ADVERSE EVENTS .................................................................................................................................................9
2.4 CONCOMITANT MEDICATIONS DATA .................................................................................................................... 9
2.5 PRE-SPECIFIED DATA.............................................................................................................................................9
2.6 COMBINING SPONTANEOUS AND PRE-SPECIFIED OCCURRENCES ........................................................................... 9
2.7 OTHER DATA .........................................................................................................................................................9

3       ADAM METADATA .......................................................................................................... 11
3.1 DATASET METADATA ..........................................................................................................................................11
  3.1.1    Example Define-XML v2.1 ADaM Datasets ....................................................................................... 11
  3.1.2    SubClass ADVERSE EVENT .............................................................................................................. 12
3.2 VARIABLE METADATA ........................................................................................................................................12
  3.2.1    ADSL Variables ...................................................................................................................................13
  3.2.2    Identifier Variables ...............................................................................................................................13
  3.2.3    Dictionary Coding and Categorization Variables ................................................................................. 14
  3.2.4    Timing Variables ..................................................................................................................................17
  3.2.5    Indicator Variables ...............................................................................................................................19
  3.2.6    Occurrence Flag Variables ...................................................................................................................21
  3.2.7    Treatment/Dose Variables .................................................................................................................... 22
  3.2.8    Descriptive Variables ...........................................................................................................................22
  3.2.9    Standardized MedDRA Query Variables ............................................................................................. 24
  3.2.10   Original or Prior Coding Variables ...................................................................................................... 24
  3.2.11   User-specified Variable Naming Conventions ..................................................................................... 25
3.3 OTHER METADATA..............................................................................................................................................26

4       EXAMPLE 1: ANALYSIS OF TREATMENT-EMERGENT ADVERSE EVENT ..... 27
4.1 ANALYSIS DISPLAY EXAMPLE LAYOUT - EXAMPLE 1 ......................................................................................... 27
4.2 SAMPLE ADAM VARIABLE METADATA - EXAMPLE 1 ......................................................................................... 28
4.3 SAMPLE ADAM DATA - EXAMPLE 1 ...................................................................................................................30

5 EXAMPLE 2: ANALYSIS OF HEMORRHAGES (SMQ) AMONG TREATMENT-
EMERGENT ADVERSE EVENTS BY SEX ........................................................................... 32
5.1 ANALYSIS DISPLAY EXAMPLE LAYOUTS - EXAMPLE 2 ....................................................................................... 32
5.2 SAMPLE ADAM VARIABLE METADATA - EXAMPLE 2 ......................................................................................... 34
5.3 SAMPLE ADAM DATA - EXAMPLE 2 ...................................................................................................................35

6 EXAMPLE 3: ANALYSIS OF PERIPHERAL SENSORY NEUROPATHY (PSN)
ADVERSE EVENTS BY SEVERITY AND CUMULATIVE DOSE EXPOSURE ............. 36
6.1 ANALYSIS DISPLAY EXAMPLE LAYOUT - EXAMPLE 3 ......................................................................................... 36
6.2 SAMPLE ADAM VARIABLE METADATA - EXAMPLE 3 ......................................................................................... 36


© 2021 Clinical Data Interchange Standards Consortium, Inc. All rights reserved                                                                                     Page 2
2021-11-29

CDISC ADaM Structure for Occurrence Data (OCCDS) Implementation Guide (1.1 Final)



6.3 SAMPLE ADAM DATA - EXAMPLE 3 ...................................................................................................................37

7 EXAMPLE 4: ANALYSIS OF TREATMENT-EMERGENT ADVERSE EVENTS IN
A CROSS-OVER INTERACTION STUDY ............................................................................ 38
7.1 ANALYSIS DISPLAY EXAMPLE LAYOUT - EXAMPLE 4 ......................................................................................... 38
7.2 SAMPLE ADAM VARIABLE METADATA - EXAMPLE 4 ......................................................................................... 39
7.3 SAMPLE ADAM DATA - EXAMPLE 4 ...................................................................................................................40

8      EXAMPLE 5: MEDDRA SECONDARY PATH ............................................................. 42
8.1 ANALYSIS DISPLAY EXAMPLE LAYOUT - EXAMPLE 5 ......................................................................................... 43
8.2 SAMPLE SDTM AE DATA - EXAMPLE 5 .............................................................................................................. 43
8.3 SAMPLE ADAM DATA - EXAMPLE 5 ...................................................................................................................43

9      EXAMPLE 6: ANALYSIS OF ADVERSE EVENTS THAT CHANGE OVER TIME 45
9.1    ANALYSIS DISPLAY EXAMPLE LAYOUTS - EXAMPLE 6 ....................................................................................... 45
9.2    SAMPLE SDTM DOMAINS - EXAMPLE 6 .............................................................................................................. 46
9.3    SAMPLE ADAM VARIABLE METADATA - EXAMPLE 6 ......................................................................................... 47
9.4    SAMPLE ADAM DATA - EXAMPLE 6 ...................................................................................................................48

10 EXAMPLE 7: ANALYSIS OF ADVERSE EVENTS FROM MULTIPLE INPUT
DOMAINS ................................................................................................................................... 50
10.1 SAMPLE SDTM DOMAINS - EXAMPLE 7 .............................................................................................................. 50
10.2 SAMPLE ADAM VARIABLE METADATA - EXAMPLE 7 ......................................................................................... 51
10.3 SAMPLE ADAM DATA - EXAMPLE 7 ...................................................................................................................53

11 EXAMPLE 8: ANALYSIS OF CONCOMITANT MEDICATIONS............................. 55
11.1 ANALYSIS DISPLAY EXAMPLE LAYOUT - EXAMPLE 8 ......................................................................................... 55
11.2 SAMPLE ADAM VARIABLE METADATA - EXAMPLE 8 ......................................................................................... 55
11.3 SAMPLE ADAM DATA - EXAMPLE 8 ...................................................................................................................57

12 EXAMPLE 9: ANALYSIS OF MEDICAL HISTORY MAPPED TO MEDDRA ....... 59
12.1 ANALYSIS DISPLAY EXAMPLE LAYOUT - EXAMPLE 9 ......................................................................................... 59
12.2 SAMPLE ADAM VARIABLE METADATA - EXAMPLE 9 ......................................................................................... 59
12.3 SAMPLE ADAM DATA - EXAMPLE 9 ...................................................................................................................60

13 EXAMPLE 10: ANALYSIS OF MEDICAL HISTORY PRE-SPECIFIED EVENTS . 62
13.1 ANALYSIS DISPLAY EXAMPLE LAYOUT - EXAMPLE 10 ....................................................................................... 62
13.2 SAMPLE ADAM VARIABLE METADATA - EXAMPLE 10 ....................................................................................... 63
13.3 SAMPLE ADAM DATA - EXAMPLE 10 .................................................................................................................64

14 EXAMPLE 11: ANALYSIS OF PROTOCOL DEVIATIONS ....................................... 65
14.1 ANALYSIS DISPLAY EXAMPLE LAYOUT - EXAMPLE 11 ....................................................................................... 65
14.2 SAMPLE ADAM VARIABLE METADATA - EXAMPLE 11 ....................................................................................... 65
14.3 SAMPLE ADAM DATA - EXAMPLE 11 .................................................................................................................67

15 APPENDICES...................................................................................................................... 69
APPENDIX A: GLOSSARY AND ABBREVIATIONS ...........................................................................................................69
APPENDIX B: REFERENCES ...........................................................................................................................................71
APPENDIX C: REVISION HISTORY ................................................................................................................................. 72
APPENDIX D: REPRESENTATIONS AND WARRANTIES, LIMITATIONS OF LIABILITY, AND DISCLAIMERS ....................... 73




© 2021 Clinical Data Interchange Standards Consortium, Inc. All rights reserved                                                                            Page 3
2021-11-29

CDISC ADaM Structure for Occurrence Data (OCCDS) Implementation Guide (1.1 Final)




1 Introduction
1.1 Purpose
The statistical analysis data structure presented in this document describes the general data structure and content
typically found in occurrence analysis. Occurrence analysis is the counting of subjects with a given record or term,
and often includes a structured hierarchy of dictionary coding categories. Examples of data that fit into this structure
include those used for typical analysis of adverse events, concomitant medications, and medical history. The
structure is based on the Analysis Data Model (ADaM) v2.1 and the ADaM Implementation Guide (ADaMIG) v1.2,
available at https://www.cdisc.org/standards/foundational/adam.
As presented in the ADaMIG, many analysis methods can be performed using the ADaM Basic Data Structure
(BDS), including Parameter (PARAM) and Analysis Value (AVAL). However, data analyzed as described above do
not fit well into the BDS and are more appropriately analyzed using a Study Data Tabulation Model (SDTM)
structure with added analysis variables.

1.1.1 Background
The ADaM Data Structure for Adverse Event Analysis, prepared by the CDISC ADaM Team and released in May
2012, described analysis related to occurrence data—but only adverse event analysis data. In the first version of the
ADaM Structure for Occurrence Data (OCCDS), released in 2014, the scope was expanded to include more than just
adverse event data.

1.1.2 Principles
This document describes analysis methods using the OCCDS. Specifically, the data and analysis described in this
document must meet these criteria:
     1.   There is no need for AVAL or AVALC. Occurrences are counted in analysis, and there are typically 1 or
          more records for each occurrence assessment.
     2.   A dictionary is often used for coding the occurrence and typically includes a well-structured hierarchy of
          categories and terminology. Remapping this hierarchy to BDS variables PARAM and generic *CAT
          variables would lose the structure and meaning of the dictionary. Per the SDTM Implementation Guide
          (SDTMIG) v3.3 (available at https://www.cdisc.org/standards/foundational/sdtmig), a dictionary is
          expected for adverse events and concomitant medications and recommended for medical history. Although
          not as common, clinical events, procedures, and substance use may also be coded. (Data for a particular
          study that could have been coded but was not should use this structure because analysis results are similar,
          and this will allow analysis programming to work the same way—for example, medical history data might
          be coded in one study and not coded in another, and yet the analysis tables look very similar.)
     3.   The data content is typically not modified for analysis purposes. In other words, there is no need for
          analysis versions of the variables that hold the dictionary hierarchy or category terms.
This does not mean that all categorical data are appropriate for OCCDS. More standard categorical data that would
never be mapped to a hierarchical dictionary, such as questionnaire responses, fit nicely in BDS and should not use
OCCDS.
Typically, findings data fit nicely into BDS, and events and interventions fit nicely into OCCDS. However, this is
not always the case: Exposure data, from an interventions SDTM structure, is quite often analyzed in BDS because
that analysis does not simply count records, although there could be an OCCDS intermediate dataset used to help
derive those BDS summary parameters. In all cases, it is the combination of input data and analysis needs that
determines the dataset structure required.
The structure presented in this document is built on the nomenclature of the SDTMIG v3.3 standard for collected
data, and adds attributes, variables, and data structures required for statistical analyses. The primary source domain
for the structure is the SDTM domain plus the corresponding Supplemental Qualifier dataset. Many additional
variables are added from the ADaM Subject-Level Analysis Dataset (ADSL).


© 2021 Clinical Data Interchange Standards Consortium, Inc. All rights reserved                                    Page 4
2021-11-29

CDISC ADaM Structure for Occurrence Data (OCCDS) Implementation Guide (1.1 Final)



In this document, the analysis datasets described are required when SDTM data are not sufficient to support all
analyses. Whether an analysis dataset is needed is left up to the producer (see ADaM Section 4.1.1, The Number and
Content of Analysis Datasets; https://www.cdisc.org/standards/foundational/adam). If an analysis dataset is needed,
and it meets the criteria listed above, it should use OCCDS.
The dataset and variable naming conventions and the dataset structure described in this document should be
followed.
The structure for the occurrence analysis dataset is usually 1 record per each record in the corresponding SDTM
domain. Examples of when the number of records in the analysis dataset would not match the number in SDTM
include:
     •    SDTM data contain screen failures but screen failures are not analyzed. In this case, the screen failure
          records are not needed in the analysis dataset.
     •    SDTM data contain --OCCUR = "N" records but these are not needed for analysis or denominators. In this
          case, --OCCUR = N records may be excluded from the OCCDS analysis dataset (Note: This example does
          not apply to the ADVERSE EVENT subclass defined in Section 3.1.2, SubClass ADVERSE EVENT).
     •    The topic (e.g., an adverse event, concomitant medication) spans several treatment periods and needs to be
          counted in each. Based on the analysis need, a separate row might be required for each treatment period
          spanned and analyzed.
     •    An adverse event needs to be analyzed along multiple coding paths. In this case, a row would be needed for
          each coding path analyzed. An alternate solution, if multiple coding paths are not needed together, would
          be to put records for each coding path into a separate analysis dataset.
This does not preclude producers from creating additional datasets for other analyses, or from using a different
structure if needed for analysis (e.g., time-to-event of adverse events of special interest).
Datasets using the OCCDS structure are assigned a dataset metadata class value of "OCCURRENCE DATA
STRUCTURE". See the Define-XML documentation (available at https://www.cdisc.org/standards/data-
exchange/define-xml) for additional information regarding CLASS/SUBCLASS.

1.1.3 What's New
The following table highlights some of the updates between this version and OCCDS Version 1.0.
Table 1.1.3.1 Highlights of OCCDS v1.1 Updates
Section/Example              What’s New
Principles                   The metadata class value of OCCURRENCE DATA STRUCTURE has added a SubClass of
                             ADVERSE EVENT, starting with the release of Define-XML v2.1.
Section 3.2.2                • Addition of SRCDOM and SRCSEQ as row identifier variables (Table 3.2.2.2) when data are
Section 3.2.11                 stacked from multiple SDTM datasets
Section 10: Example 7        • Introduction of a U prefix, as a solution for OCCDS dataset created from stacking rows from
                               multiple SDTM datasets. This prefix stands for “unmodified” and indicates no modifications made
                               to the content of the SDTM variables.
Section 3.2.5                • Addition of TREMxxFL, TRTEMwFL, ONTRxxFL, and ONTRTwFL when there are multiple
Table 3.2.5.3                  periods or other analysis needs for multiple treatment emergent or on treatment flags
Table 3.2.5.4                • Addition of TREM01FL, TREM02FL, and TREM03FL to Example 4
Section 7: Example 4
Section 3.2.9                Addition of ADECODy variable (Analysis Dictionary-Derived Term y) for sponsors/clinicians to
Table 3.2.9.1                collapse and/or group preferred terms under a common term to investigate potential safety concerns
Section 9: Example 6         Solution for OCCDS created from multiple SDTM datasets where 1 qualifier changes over time and
                             affects the analysis
Section 14: Example 11       An example of an OCCDS dataset with derived records where data-point traceability is not feasible
                             and value-level metadata is needed

For more details, see Appendix C, Revision History.




© 2021 Clinical Data Interchange Standards Consortium, Inc. All rights reserved                                           Page 5
2021-11-29

CDISC ADaM Structure for Occurrence Data (OCCDS) Implementation Guide (1.1 Final)



1.2 Points to Consider When Interpreting this Document
In reviewing the metadata and examples in this document, some points to consider include:
     •    Ordering of variables: Within this document, no specific ordering of variables within the illustrated
          datasets is applied. ADaM v2.1 states that ideally the ordering of the variables in the analysis dataset
          follows a logical ordering (not simply alphabetic), but does not provide a specific recommendation for the
          ordering of the variables. Within this document, the author of each example applied their own logical
          ordering. Although there is not an across-example consistency of ordering of variables, within an example
          the ordering of the variables within the illustrated analysis dataset matches the order of the variables as
          presented in the associated metadata.
     •    Identification of source dataset: When identifying the source dataset for a variable, the immediate
          predecessor is used, as described in ADaM. For example, in ADSL the source is identified as DM.SUBJID
          in the analysis variable metadata. When SUBJID is used in the occurrence analysis dataset, the source is
          identified as ADSL.SUBJID.
     •    Analysis-ready: The occurrence analysis dataset should be “analysis-ready,” meaning it should contain all
          of the variables needed for the specific analysis, so that the analysis can be replicated by performing the
          actual statistical test without first having to manipulate data. "Analysis-ready" does not mean that a
          formatted display can be generated in a single statistical procedure. For typical occurrence analyses, unique
          subject counts are derived by running a standard statistical procedure (e.g., SAS PROC, S-PLUS function)
          on the occurrence analysis dataset, whereas denominator counts can be derived from ADSL.
     •    Examples for illustration only: The examples in this document are only intended as illustrations and
          should not be viewed as a statement of the standards themselves. In addition, the examples are intended to
          illustrate content and not appearance; it is understood that there are many different ways that data can be
          displayed. This document does not cover display formats.
     •    Display of metadata for illustration only: Although the metadata elements have been defined in ADaM,
          how the metadata are displayed is a function of the mechanism used to display the content. The
          presentation formats used in this document are for the purposes of illustration of content only, and are not
          intended to imply any type of display standard or requirement. Additionally, the metadata examples just
          include the metadata necessary to understand the respective example datasets. Refer to Define-XML v2.1
          (available at https://www.cdisc.org/standards/data-exchange/define-xml) for additional information (e.g.,
          variable length and origin) required when building a valid define.xml file according to the Define-XML
          standard.
     •    Analysis results metadata: Analysis results metadata have not been included for any examples in this
          document. As stated in ADaM, analysis results metadata are not required. However, best practice is that
          they be provided to assist the consumer by identifying the critical analyses; providing links between results,
          documentation, and datasets; and documenting the analyses performed.
     •    Examples not all-inclusive regarding variables: The examples describe some of the key variables and
          records that would be included in the dataset. They are not intended to illustrate every possible variable that
          might be included in the analysis dataset (e.g., core variables required for subgroup analyses are not
          included in all illustrations).
     •    Source/Derivation column: The algorithms provided in the Source/Derivation column are for illustration
          purposes only and are not intended to imply universally accepted definitions or derivations of variables.
          Algorithms are producer-defined and dependent on trial and analysis design.
     •    Endorsement of vendors or products: As with other ADaM documents, references to specific vendor
          products are examples only and therefore should not be interpreted as an endorsement of these vendors or
          products.




© 2021 Clinical Data Interchange Standards Consortium, Inc. All rights reserved                                   Page 6
2021-11-29

CDISC ADaM Structure for Occurrence Data (OCCDS) Implementation Guide (1.1 Final)



1.3 Conventions Used in this Document
Throughout this document the terms “producer” and “consumer” are used to refer to the
originator/sender/owner/sponsor of the data and the user/reviewer/recipient of the data, respectively. These terms are
used to simplify the document, and are not intended to imply that these examples only apply to analysis datasets in
the context of electronic submissions to regulatory agencies.




© 2021 Clinical Data Interchange Standards Consortium, Inc. All rights reserved                                Page 7
2021-11-29

CDISC ADaM Structure for Occurrence Data (OCCDS) Implementation Guide (1.1 Final)




2 Data Analysis and Coding
2.1 Statistical Analysis
The most frequently used method for the comparison between treatment groups of data in OCCDS is the
summarization of the number of subjects with at least 1 occurrence of a term. These counts and related percentages
are presented at different levels of the dictionary hierarchy, when the hierarchy exists. The denominator used for
calculating percentages is often determined by a population flag, such as the total number of subjects at risk or the
number of subjects exposed to treatment. Note that some subjects in the population may not have any records, and
therefore these subjects would not be represented in the SDTM domain nor the corresponding OCCDS analysis
dataset. Thus, the denominators usually need to be obtained from the ADaM subject-level analysis dataset (ADSL)
rather than directly from the occurrence analysis dataset.
ADaM primarily covers the creation of an analysis dataset needed for the presentation of frequencies and
percentages. However, the example analysis datasets presented in this document could be used to construct more in-
depth analysis datasets, even in a different structure such as a time-to-event analysis dataset of adverse events of
interest in the ADaM Basic Data Structure. For ADaM data structures other than OCCDS, see ADaMIG v1.2
(available at https://www.cdisc.org/standards/foundational/adam).

2.2 Dictionary Coding
Data are often collected in textual or "verbatim" content, a short description of an event or intervention generally
written in free text on the case report form (CRF). Verbatim content is then processed through a coding dictionary so
that similar verbatim content is grouped together by classifying them into a hierarchy of medical granularity.
The Medical Dictionary for Regulatory Activities (MedDRA; https://www.meddra.org) and WHO Drug Dictionary
(https://www.who-umc.org/) have become widely recognized as a global standard for the coding of adverse events
and medications. Examples of other coding dictionaries include WHO Adverse Reaction Terminology (WHO-ART;
see https://www.who-umc.org/), no longer actively maintained; the International Classification of Disease (ICD;
http://www.who.int/classifications/icd/en/); and Coding Symbols for a Thesaurus of Adverse Reaction Terms
(COSTART; see http://www.nlm.nih.gov/research/umls/), which was replaced by MedDRA but can still be found in
older studies.
The coding dictionary is characterized by classifying each verbatim into a hierarchy of medical granularity. For
example, if the verbatim content recorded was "stomach virus," the COSTART coding hierarchy would place this
event in the Body as a Whole system, in the General subcategory for this body system, and with the preferred term
of "Flu Syndrome." If using MedDRA v23.1, for example, this verbatim content would result in a system organ
class (SOC) of "Infections and infestations" and a preferred term (PT) of "Gastroenteritis viral."
When using coding dictionaries, it is recommended that coding rules and guidelines be developed by the producer
prior to the classification of terminology. The process of coding verbatim terms with a dictionary is outside the
scope of this document. The objective of coding guidelines is to promote medical accuracy and consistency when
using the controlled vocabulary of the dictionary. This consistency will support a variety of downstream analysis
needs, such as when events need to be recoded to integrate data from 2 or more clinical studies.

2.2.1 Recoding of Occurrence Data
In some situations, multiple study reports are created for a single study. For example, an initial study report may be
created at the time of the primary analysis for the primary efficacy endpoint. If subjects are followed for safety, a
second report may be created years later so that long-term safety data can be incorporated. At that time, there may
be a desire to update the coding dictionary so that all content is coded using the most recent version of a dictionary.
It should be noted that a more common scenario involving recoding occurrence data is when data are recoded for an
integrated analysis and submitted to a regulatory agency for marketing approval. However, neither the current
version of the ADAMIG nor this document fully covers integration of multiple studies. The ADaM Team is
developing a document to address integration of multiple studies. Some of the suggestions included here for
handling multiple dictionaries may be revised after this integration document is released.



© 2021 Clinical Data Interchange Standards Consortium, Inc. All rights reserved                                   Page 8
2021-11-29

CDISC ADaM Structure for Occurrence Data (OCCDS) Implementation Guide (1.1 Final)



2.3 Adverse Events
The safety evaluation of a clinical trial includes the analysis of adverse events, and that analysis is typically done
using OCCDS. The definition of an adverse event, per the International Council for Harmonisation of Technical
Requirements for Pharmaceuticals for Human Use (ICH) E2A guideline,[1] is:
          Any untoward medical occurrence in a patient or clinical investigation subject administered a pharmaceutical
          product and which does not necessarily have to have a causal relationship with this treatment.
Important attributes include the level of severity of the adverse event (mild, moderate, or severe), whether it is
considered to be related to the study product (yes or no), and whether it is considered serious (yes or no). Of
particular importance in the analysis of adverse events is the definition of treatment-emergent. The ICH E9
guidance document[2] defines treatment-emergent as an event that emerges during treatment having been absent
pretreatment, or worsens relative to the pretreatment state. Operationally, classifying adverse events as treatment-
emergent will utilize, in part, the start or worsening date of the event relating to the trial or treatment start. Other
important attributes of adverse events include the action taken in response to the event and whether the event led to
permanent discontinuation of the investigational product.

2.4 Concomitant Medications Data
Concomitant medications data can be coded to a hierarchy such as WHO Drug and summarized by medication
and/or ingredient within class.

2.5 Pre-specified Data
In some cases, data can be gathered on a CRF that contains a pre-specified category and a checkbox to indicate
whether the subject had the event, condition, or treatment. This information is stored as described in the SDTMIG
(available at https://www.cdisc.org/standards/foundational/sdtmig). --PRESP is used to indicate that the term is pre-
specified; --OCCUR is either "Y" or "N" (or null if --STAT is populated) to indicate whether the subject did or did
not have the event, condition, or treatment. --TERM or --TRT will have a known and finite set of values, so these
values may be adequate to use as a summarization category. Often these pre-specified terms are grouped into
categories at collection using the --CAT and --SCAT variables, creating additional levels of summarization
categories. In this situation, data are analyzed by variables such as --TERM, --TRT, --CAT and --SCAT, and
dictionary coding might not be necessary. For example, medical history and clinical events data are often captured in
this way.
Note that this pre-specified data option works in a different way for adverse events because the SDTMIG does not
permit the use of variable AEOCCUR. In other words, all records in an SDTM Adverse Event dataset must
correspond to an actual occurrence of the event; pre-specified events that do not occur are captured in another
dataset.

2.6 Combining Spontaneous and Pre-specified Occurrences
It is technically feasible to apply the same coding dictionary to both collected and pre-specified data and combine
these data for analysis. Whether to do so is a statistical judgment that should be carefully considered and described
in programming specifications. A pre-specified question on a CRF makes it more likely to receive data, and would
therefore increase the frequency in a summary. In deciding whether to pool pre-specified and spontaneous data, the
statistician should consider the way data were gathered and weigh the possibility of over-reporting pre-specified
data. The statistician should also carefully consider and describe the correct denominator for percentages.
If data are pooled in this way, take care that non-occurring data (--OCCUR = N) are properly excluded from the
analysis.

2.7 Other Data
Other similar data, with or without coding hierarchy, can be summarized similarly. For an example of summarizing
without a coding hierarchy, see Section 13, Example 10: Analysis of Medical History Pre-specified Events.



© 2021 Clinical Data Interchange Standards Consortium, Inc. All rights reserved                                          Page 9
2021-11-29

CDISC ADaM Structure for Occurrence Data (OCCDS) Implementation Guide (1.1 Final)



Some examples of other data that can also be summarized using OCCDS include:
     •    Clinical events, when collected by category and not mapped to a dictionary, but summarized in a similar
          way as adverse events
     •    Protocol violations, when summarized by counting subjects with violations within each category
     •    Laboratory data containing National Cancer Institute Common Toxicity Criteria (NCI-CTC)[3] information
          that has been coded with MedDRA and summarized as laboratory events. When these events are
          summarized like adverse events, an extension of the adverse event examples that are shown in this
          document can be used.
In all cases, OCCDS should be used when a summary of the hierarchy is done, counting the number of subjects at
each level of the hierarchy. Alternatively, the ADaM Basic Data Structure could be used for counting when there is
not a hierarchy, when the terms are counted rather than the subjects, and when variables such as AVAL and
PARAM are appropriate to include.




© 2021 Clinical Data Interchange Standards Consortium, Inc. All rights reserved                              Page 10
2021-11-29

CDISC ADaM Structure for Occurrence Data (OCCDS) Implementation Guide (1.1 Final)




3 ADaM Metadata
As described in ADaM Section 4.1.2, Analysis Dataset and Variable Naming Conventions (available at
https://www.cdisc.org/standards/foundational/adam), variables that are copied from SDTM must have the same
variable name, label, values, and meaning as in SDTM. Because the OCCDS can be used for adverse events,
concomitant medications, and other occurrence data, metadata shown in this section reference different SDTM
domains. For clarity, the following conventions are used:
     •    When referring to the 2-letter prefix in variable names, the standard convention is to use “--”, as described
          in SDTM v1.7 (available at https://www.cdisc.org/standards/foundational/sdtm) Section 2.2, The General
          Observation Classes.
     •    The “--” convention was intended for variable names, not domain names, and “--” is difficult to read in the
          documentation for SDTM domain names. This document uses the convention of “XX” to represent a
          domain name, as was done in the ADaM Examples in Commonly Used Statistical Analysis Methods
          document (https://www.cdisc.org/standards/foundational/adam/).
     •    Variable labels that differ depending on SDTM domain are referenced by a note at the end of the relevant
          table.
Take care when creating actual metadata to replace “--”, “XX”, and generic variable labels with the actual 2-letter
domain code and label from the SDTM.

3.1 Dataset Metadata
Typically, the analysis data structure for an OCCDS dataset is specified as follows:
Table 3.1.1 Data Structure
Data         Data Structure    Class of Dataset     SubClass of         CDISC Notes
Structure    Description                            Dataset
Name
OCCDS        Occurrence Data OCCURRENCE                                 Generally these are 1 record per record in SDTM domain
             Structure       DATA STRUCTURE                             (optional: per coding path, per Analysis Period and/or Phase.
                                                                        See Section 1.1, Purpose, for examples of when the analysis
                                                                        data structure might not be one record per record in SDTM
                                                                        domain.)
AE           Occurrence Data OCCURRENCE     ADVERSE EVENT               Datasets in the SubClass ADVERSE EVENT must have a
             Structure       DATA STRUCTURE                             Class of OCCURRENCE DATA STRUCTURE and meet all
             Adverse Event                                              the principles of that class. The SDTM input dataset for the
                                                                        ADVERSE EVENT SubClass is always AE, with some
                                                                        additional information from SUPPAE, FA, and ADSL. See
                                                                        Section 3.1.2, SubClass ADVERSE EVENT, for more details.

The Data Structure Name, Data Structure Description, and CDISC Notes are intended to provide information to
assist producers in preparing their datasets and are not intended to be metadata submitted in define.xml.

3.1.1 Example Define-XML v2.1 ADaM Datasets
Beginning with Define-XML v2.1 (available at https://www.cdisc.org/standards/data-exchange/define-xml), dataset
metadata can include SubClass in addition to Class. SubClass has controlled terminology, and one of the allowed
terms is “ADVERSE EVENT”. Table 3.1.1.1 shows how the SubClass of “ADVERSE EVENT” is used within the
ADaM dataset metadata.




© 2021 Clinical Data Interchange Standards Consortium, Inc. All rights reserved                                              Page 11
2021-11-29

CDISC ADaM Structure for Occurrence Data (OCCDS) Implementation Guide (1.1 Final)



Table 3.1.1.1 Example Define-XML v2.1 ADaM Datasets
Dataset       Description Class - SubClass         Structure      Purpose Keys            Documentation               Location
ADSL          Subject-Level SUBJECT LEVEL          One record     Analysis STUDYID,       Screen Failures are         adsl.xpt
              Analysis      ANALYSIS DATASET       per subject             USUBJID        excluded since they are
                                                                                          not needed for this study
                                                                                          analysis. See referenced
                                                                                          dataset creation program
                                                                                          and ADRG adsl.sas
                                                                                          Analysis Data Reviewer's
                                                                                          Guide [6]
ADQSADAS ADAS-Cog           BASIC DATA      One record    Analysis          STUDYID,      See referenced dataset      adqsadas.xpt
         Analysis           STRUCTURE       per subject                     USUBJID,      creation program and
                                            per parameter                   PARAMCD,      ADRG adqsadas.sas
                                            per analysis                    AVISIT, ADT   Analysis Data Reviewer's
                                            visit per                                     Guide [Section2.1]
                                            analysis date
ADAE          Adverse       OCCURRENCE DATA One record    Analysis          STUDYID,      See SAS program             adae.xpt
              Events        STRUCTURE       per subject                     USUBJID,      adae.sas
              Analysis          •  ADVERSE per adverse                      AETERM,
              Dataset              EVENT    event                           ASTDT,
                                                                            AESEQ



3.1.2 SubClass ADVERSE EVENT
The intent of the ADVERSE EVENT SubClass is to have a consistent way to represent data needed for typical
adverse event analyses. Examples from Sections 4-9 can be produced from a dataset that is of SubClass ADVERSE
EVENT.
Datasets in the SubClass ADVERSE EVENT must have a Class of OCCURRENCE DATA STRUCTURE: All the
principles described in Section 1.1, Purpose, must be met, and the structure is usually 1 record per each record in the
corresponding SDTM domain. Additionally,
     •    The SDTM input dataset for the ADVERSE EVENT SubClass is always AE, with some additional
          information from SUPPAE, FA, and ADSL.
     •    Data in other event domains, such as Medical History (MH) or Clinical Events (CE), are not included in
          the ADVERSE EVENT SubClass.
When adverse event-related information is collected in the Findings domain, every record in SubClass ADVERSE
EVENT will have an AESEQ, and records from FA will also have a unique identifier variable, such as FASEQ or
FASPID, for traceability.
Not all OCCDS datasets that contain adverse event data will necessarily be of SubClass ADVERSE EVENT. In the
example in Section 10, Example 7: Analysis of Adverse Events from Multiple Input Domains, the OCCDS dataset
contains input rows from CE in addition to AE. Although this is an OCCDS dataset, it is not of SubClass
ADVERSE EVENT.

3.2 Variable Metadata
As stated previously, OCCDS is different from the ADaM Basic Data Structure (BDS). There is no PARAM nor
AVAL, for example. However, some of the variables described for BDS in ADaMIG v1.2 (available
at https://www.cdisc.org/standards/foundational/adam) can be used in OCCDS, as shown below. Likewise, some
variables defined below may be used in non-OCCDS ADaM dataset structures, such as TRTEMFL if needed.
The more standardized variables commonly occurring in the ADaM OCCDS are described here in tabular format. In
general, include all variables from the SDTM dataset and corresponding supplemental qualifiers that are needed for
analysis or traceability. For traceability when copying variables from SUPPQUAL, it is recommended to use
variable names that exactly match the corresponding SUPPQUAL.QNAM values. Additional study- or therapeutic-
specific variables may be added as needed but should follow the standard variable-naming conventions described
in ADaMIG v1.2 Section 3.3, ADaM Basic Data Structure (BDS) Variables. For example, variables with the 2-letter
SDTM prefix are most commonly those that are copied from the SDTM or transposed SUPPQUAL dataset, or the
numeric version of the SDTM variable, but not analysis versions of SDTM variables. Choose variable names with
care to prevent unintended conflicts with standard names.


© 2021 Clinical Data Interchange Standards Consortium, Inc. All rights reserved                                            Page 12
2021-11-29

CDISC ADaM Structure for Occurrence Data (OCCDS) Implementation Guide (1.1 Final)



As described in ADaM, the 3 rightmost columns of the table (i.e., Core, SubClass ADVERSE EVENT Core, CDISC
Notes) provide information about the variables to assist users in preparing their datasets. These columns are not
meant to be metadata submitted in define.xml. The Core column, as defined in ADaMIG v1.2, describes whether a
variable is required (Req), conditionally required (Cond), or permissible (Perm) in the OCCURRENCE DATA
STRUCTURE Class. The SubClass ADVERSE EVENT Core column describes whether a variable is required
(Req), conditionally required (Cond), permissible (Perm), or not used (Not used) in the ADVERSE EVENT
SubClass. The CDISC Notes column provides more information about the variable. In addition, the Type column is
being used to define whether the variable is character (Char) or numeric value (Num). More specific information
will be provided in metadata.
SubClass ADVERSE EVENT Variables
OCCDS variables are described later in this section. Variables in an OCCDS dataset that is of SubClass ADVERSE
EVENT can include:
     •    Any variable copied unchanged from ADSL
     •    Any variable copied unchanged from SDTM AE
          o    SubClass ADVERSE EVENT should include all SDTM AE variables with the SDTM core value of
               Required or Expected.
     •    Any variable copied or derived from SDTM FA (see Section 9, Example 6: Analysis of Adverse Events
          that Change over Time)
          o    When FA is used as input to the ADVERSE EVENT SubClass dataset, a unique identifier variable,
               such as FASEQ or FASPID, is required for traceability.
     •    Any variable copied from content in SDTM SUPPAE
           o   It is recommended to use SUPPAE QNAM as the ADVERSE EVENT SubClass dataset variable
               name, SUPPAE QLABEL as the ADVERSE EVENT SubClass dataset variable label, and SUPPAE
               QVAL as the ADVERSE EVENT SubClass variable content.
     •     Derived variables, such as numeric timing variables, TRTEMFL and other indicators, analysis versions of
           descriptive variables, and other variables derived using the naming conventions described in Section
           3.2.11, User-specified Variable Naming Conventions

3.2.1 ADSL Variables
Merge any subject-level variables needed for analysis or reference.
Be aware that only subjects with a record in an input SDTM domain would have a record in the analysis dataset. For
this reason, it is recommended that population indicators and denominator counts for percentages be derived from
ADSL and not from the occurrence analysis dataset.

3.2.2 Identifier Variables
Table 3.2.2.1 includes the identifier variables from SDTM.
Table 3.2.2.1 OCCDS Identifier Variables
Variable        Variable Label               Type Codelist Controlled        Core SubClass ADVERSE EVENT   CDISC Notes
Name                                                       Terms                  Core
STUDYID         Study Identifier             Char                            Req Req                       XX.STUDYID
USUBJID         Unique Subject Identifier    Char                            Req Req                       XX.USUBJID
SUBJID          Subject Identifier for the   Char                            Perm Perm                     ADSL.SUBJID
                Study
SITEID          Study Site Identifier        Char                            Perm Perm                     ADSL.SITEID

In addition to the above identifiers, row identifiers are included to support datapoint traceability. The combination of
dataset or domain name and the relevant sequence number, when used in conjunction with USUBJID, provide
datapoint traceability. There are 2 row identifier options: --SEQ or the combination of SRCDOM + SRCSEQ.




© 2021 Clinical Data Interchange Standards Consortium, Inc. All rights reserved                                 Page 13
2021-11-29

CDISC ADaM Structure for Occurrence Data (OCCDS) Implementation Guide (1.1 Final)



Commonly, rows in an OCCDS dataset are created from a single SDTM domain. In this case, --SEQ provides all of
the row identifier (and thus datapoint traceability) information: The 2-letter prefix of the variable name is the SDTM
domain name, and the content is the relevant sequence number.
Less commonly, rows in an OCCDS dataset are from multiple SDTM domains or from 1 or more ADaM datasets.
Either the --SEQ variable from each domain can be added, or the variables SRCDOM and SRCSEQ can be used to
identify the input rows.
Note: SRCDOM and SRCSEQ are described in ADaMIG Section 3.3.9, Datapoint Traceability Variables, as part of
BDS datapoint traceability. The BDS data-point traceability variable SRCVAR is not included in OCCDS;
SRCVAR is used to hold the name of the primary variable used to derive AVAL or AVALC in BDS, but AVAL and
AVALC are not applicable to OCCDS. (For additional guidance, see the ADaMIG;
https://www.cdisc.org/standards/foundational/adam).
Table 3.2.2.2 Row Identifier Variables
Variable    Variable     Type Codelist Controlled     Core SubClass        CDISC Notes
Name        Label                      Terms               ADVERSE
                                                           EVENT Core
--SEQ       Sequence     Num                          Cond Req             XX.--SEQ
            Number                                                         Identifies the sequence number in SDTM domain XX that
                                                                           is the source for this row. This variable would be copied
                                                                           unchanged from the SDTM domain XX. Required for
                                                                           traceability back to SDTM when rows in the dataset are
                                                                           created from a single SDTM domain. This may be missing
                                                                           for derived rows.
                                                                           For SubClass ADVERSE EVENT, use AESEQ, copied
                                                                           from SDTM AE.AESEQ.
SRCDOM      Source       Char                         Perm Not used        Identifies the name of the domain or dataset that is the
            Data                                                           source for this row. If the source data is a supplemental
                                                                           qualifier in SDTM, this variable will contain the value of
                                                                           RDOMAIN in SUPP-- or SUPPQUAL. Used when rows in
                                                                           the OCCDS dataset are from multiple SDTM domains or
                                                                           from one or more ADaM datasets. Not to be used in
                                                                           conjunction with --SEQ. This may be missing for derived
                                                                           rows.
                                                                           For SubClass ADVERSE EVENT, AESEQ is used rather
                                                                           than SRCDOM and SRCSEQ.
SRCSEQ      Source       Num                          Perm Not used        Identifies the sequence number that is the source for this
            Sequence                                                       row. If SRCDOM is a SUPPQUAL, then this variable will
            Number                                                         contain the sequence number of the relevant related
                                                                           domain record. Used when rows in the OCCDS dataset
                                                                           are from multiple SDTM domains or from one or more
                                                                           ADaM datasets. Not to be used in conjunction with --SEQ.
                                                                           This may be missing for derived rows.
                                                                           For SubClass ADVERSE EVENT, AESEQ is used rather
                                                                           than SRCDOM and SRCSEQ.
ASEQ        Analysis     Num                          Perm Perm            Sequence number given to ensure uniqueness of subject
            Sequence                                                       records within an ADaM dataset.
            Number                                                         ASEQ is useful for traceability when the OCCDS dataset
                                                                           is used as input to another ADaM dataset and the --SEQ
                                                                           variable is not included or unique. ASEQ is described in
                                                                           more detail in ADaMIG v1.2, Section 3.3.1, Identifier
                                                                           Variables for BDS Datasets.

For the ADVERSE EVENT SubClass, when data from FA is used in the ADVERSE EVENT SubClass, a unique
identifier variable, such as FASEQ or FASPID, is also required for traceability.

3.2.3 Dictionary Coding and Categorization Variables
Dictionary coding and categorization variables provided in the SDTM should be included as needed for analysis,
review, or traceability. Common coding variables are provided in this section. If other coding variables are included
in the SDTM and pertinent for analysis, these should be included in ADaM using a similar naming convention as
shown here. For any public versioned dictionary, the metadata for each coding variable should include both the
name and version of the dictionary.
Common Dictionary Coding Variables for MedDRA




© 2021 Clinical Data Interchange Standards Consortium, Inc. All rights reserved                                              Page 14
2021-11-29

CDISC ADaM Structure for Occurrence Data (OCCDS) Implementation Guide (1.1 Final)



MedDRA coding is typically used for adverse events and medical history. Copy the needed MedDRA terms and codes from SDTM to the analysis dataset.
For the SubClass ADVERSE EVENT, it is required that all levels of terms for the primary path in the MedDRA hierarchy—System Organ Class (SOC), High
Level Group Term (HLGT), High Level Term (HLT), Lowest Level Term (LLT), and Preferred Term (PT)—be included. For other OCCDS datasets, these
variables are recommended (they are frequently useful in further analyses of events), but not required.
Table 3.2.3.1 MedDRA Dictionary Coding Variables
Variable     Variable Label       Type Codelist    Controlled   Core     SubClass        CDISC Notes
Name                                               Terms                 ADVERSE EVENT
                                                                         Core
--TERM       Reported Term        Char                          Req      Req             Copied from XX.--TERM
                                                                                         This variable label differs depending on the SDTM domain. See SDTM v1.7 Section 2.2.2,
                                                                                         The Events Observation Class, and SDTMIG v3.3 Section 6.2, Models for Events
                                                                                         Domains, for details.
--DECOD      Dictionary-Derived   Char             MedDRA       Cond     Req             Copied from XX.--DECOD
             Term                                                                        This variable is typically one of the primary variables used in an analysis and would be
                                                                                         brought in from the SDTM domain. Equivalent to the MedDRA PT. All other SDTM domain
                                                                                         variables and supplemental qualifiers needed for analysis or traceability should also be
                                                                                         included. Include the dictionary version in the metadata.
                                                                                         Conditional on whether coded and used for analysis. Required for adverse event data.
--BODSYS     Body System or       Char             MedDRA       Cond     Req             Copied from XX.--BODSYS
             Organ Class                                                                 Include the dictionary version in the metadata.
                                                                                         Conditional on whether coded and used for analysis. Required for adverse event data.
--BDSYCD     Body System or       Num              MedDRA       Perm     Req             Copied from XX.--BDSYCD or the supplemental qualifier
             Organ Class Code                                                            This would be copied from the SDTM domain XX or supplemental qualifier dataset. Include
                                                                                         the dictionary version in the metadata.
--LLT        Lowest Level Term    Char             MedDRA       Cond     Req             Copied from XX.-- LLT or the supplemental qualifier
                                                                                         Include the dictionary version in the metadata.
                                                                                         Conditional on whether coded and used for analysis.
--LLTCD      Lowest Level Term    Num              MedDRA       Perm     Req             Copied from XX.--LLTCD or the supplemental qualifier
             Code                                                                        Include the dictionary version in the metadata.
--PTCD       Preferred Term       Num              MedDRA       Perm     Req             Copied from XX.--PTCD or the supplemental qualifier
             Code                                                                        Include the dictionary version in the metadata.
--HLT        High Level Term      Char             MedDRA       Cond     Req             Copied from XX.--HLT or the supplemental qualifier
                                                                                         Include the dictionary version in the metadata.
                                                                                         Conditional on whether used for analysis.
--HLTCD      High Level Term      Num              MedDRA       Perm     Req             Copied from XX.--HLTCD or the supplemental qualifier
             Code                                                                        Include the dictionary version in the metadata.
--HLGT       High Level Group     Char             MedDRA       Cond     Req             Copied from XX.--HLGT or the supplemental qualifier
             Term                                                                        Include the dictionary version in the metadata.
                                                                                         Conditional on whether used for analysis.
-‑HLGTCD     High Level Group     Num              MedDRA       Perm     Req             Copied from XX.--HLGTCD or the supplemental qualifier
             Term Code                                                                   Include the dictionary version in the metadata.
--SOC        Primary System       Char             MedDRA       Cond     Req             Copied from XX.--SOC or the supplemental qualifier
             Organ Class                                                                 Include the dictionary version in the metadata.
                                                                                         Conditional on whether a secondary SOC was used for analysis.
--SOCCD      Primary System       Num              MedDRA       Perm     Req             Copied from XX.--SOCCD or the supplemental qualifier
             Organ Class Code                                                            Include the dictionary version in the metadata.

Note: MedDRA allows a term to be represented in more than 1 SOC (e.g., primary and, in some cases, secondary coding paths). See Section 8, Example 5:
MedDRA Secondary Path, for an example layout for a possible way to handle the need to report on secondary paths along with primary paths.


© 2021 Clinical Data Interchange Standards Consortium, Inc. All rights reserved                                                                                            Page 15
2021-11-29

CDISC ADaM Structure for Occurrence Data (OCCDS) Implementation Guide (1.1 Final)



Common Dictionary Coding Variables for WHO Drug
WHO Drug coding is typically used for concomitant medications. Copy to the analysis dataset the needed WHO Drug terms and codes from SDTM CM and
SUPPCM. The variables shown in Table 3.2.3.2 are intended for a single WHO Drug coding path.
Table 3.2.3.2 WHO Drug Dictionary Coding Variables
Variable       Variable Label            Type Codelist Controlled       Core SubClass ADVERSE CDISC Notes
Name                                                   Terms                 EVENT Core
CMTRT          Reported Name of Drug,    Char                           Req Not Used          CM.CMTRT
               Med, or Therapy
CMDECOD        Standardized Medication   Char            WHO Drug       Cond Not Used         CM.CMDECOD
               Name                                                                           This is typically one of the primary variables used in CM analysis and would be
                                                                                              copied from the SDTM CM domain. Include the dictionary version in the variable
                                                                                              metadata.
                                                                                              Conditional on whether coded and used for analysis.
CMCLAS         Medication Class          Char                           Perm Not Used         CM.CMCLAS
                                                                                              Include the dictionary version in the metadata.
CMCLASCD       Medication Class Code     Char                           Perm Not Used         CM.CMCLASCD
                                                                                              Include the dictionary version in the metadata.
ATCy           ATC Level y Text          Char            WHO Drug       Cond Not Used         Corresponds to the ATC Level Text for WHO Drug. Include the dictionary version in
                                                                                              the variable metadata.
                                                                                              Conditional, based on analysis at multiple levels (y)
ATCyCD         ATC Level y Code          Char            WHO Drug       Cond Not Used         Corresponds to the ATC Level Code for WHO Drug. Include the dictionary version in
                                                                                              the variable metadata.
                                                                                              Conditional, based on analysis at multiple levels (y)

Other Categorization Variables
When categories are used for the intended analysis, instead of or in addition to MedDRA or WHO Drug, these generic categorization variables are commonly
used:
Table 3.2.3.3 Other Categorization Variables
Variable   Variable Label         Type    Codelist Controlled Core      SubClass ADVERSE     CDISC Notes
Name                                               Terms                EVENT Core
--CAT      Category               Char                        Perm      Perm                 Copied from XX.--CAT
                                                                                             This variable label differs depending on the SDTM domain. See SDTM v1.7 Section
                                                                                             2.2, The General Observation Classes, and SDTMIG v3.3 Section 6, Domain Models
                                                                                             Based on the General Observation Classes, for details.
--SCAT     Subcategory            Char                          Perm    Perm                 Copied from XX.--SCAT
                                                                                             This variable label differs depending on the SDTM domain. See SDTM v1.7 Section
                                                                                             2.2, The General Observation Classes, and SDTMIG v3.3 Section 6, Domain Models
                                                                                             Based on the General Observation Classes, for details.
ACATy      Analysis Category y    Char                          Perm    Perm                 Category used in analysis. May be derived from --CAT and/or --SCAT. Examples
                                                                                             include records of special interest like prohibited medications, concomitant
                                                                                             medications taken during an infusion reaction, growth factors, antimicrobial
                                                                                             medications, and other such categories not defined elsewhere or present in SDTM
                                                                                             domains.




© 2021 Clinical Data Interchange Standards Consortium, Inc. All rights reserved                                                                                        Page 16
2021-11-29

CDISC ADaM Structure for Occurrence Data (OCCDS) Implementation Guide (1.1 Final)



3.2.4 Timing Variables
Timing variables are copied from the SDTM and derived within ADaM. Common timing variables are provided in this section. If other timing variables are
collected in SDTM and pertinent for analysis, these should be included in ADaM. Additional timing variables, such as those for period start and end dates, can be
included. For more details on timing variables, see ADaMIG Section 3.3.3, Timing Variables for BDS Datasets.
Table 3.2.4.1 Timing Variables
Variable      Variable Label     Type Codelista Controlled      Core SubClass     CDISC Notes
Name                                            Terms                ADVERSE
                                                                     EVENT Core
--STDTC       Start Date/Time of Char             ISO 8601      Cond Req          Copied from XX.–STDTC
              Observation                                                         Conditional on whether start date is pertinent for study and is populated in SDTM
                                                                                  This variable label differs depending on the SDTM domain. See SDTM v1.7 Section 2.2.5, Timing
                                                                                  Variables for All Classes, and SDTMIG v3.3 Section 6, Domain Models Based on the General
                                                                                  Observation Classes for details.
ASTDT         Analysis Start     Num                            Cond Req          Created from converting XX.--STDTC from character ISO 8601 format to numeric date format,
              Date                                                                applying imputation rules if specified in the statistical analysis plan (SAP) or metadata
                                                                                  Conditional on whether start date is pertinent for study and is populated in SDTM
ASTTM         Analysis Start     Num                            Cond Cond         Created from converting XX.--STDTC from character ISO 8601 format to numeric time format,
              Time                                                                applying imputation rules if specified in the SAP or metadata
                                                                                  Conditional on whether start time is pertinent for study and is populated in SDTM
ASTDTM        Analysis Start     Num                            Cond Cond         Created from converting XX.--STDTC from character ISO 8601 format to numeric datetime format,
              Datetime                                                            applying imputation rules if specified in the SAP or metadata
                                                                                  Conditional on whether start datetime is pertinent for study and is populated in SDTM
ASTDTF        Analysis Start     Char (DATEFL)                  Cond Cond         The level of imputation of analysis start date. Imputation flags are described in ADaMIG v1.2
              Date Imputation                                                     Section 3.1.3, Date and Time Imputation Flag Variables.
              Flag                                                                Conditional on whether ASTDT (or the date part of ASTDTM) was imputed
ASTTMF        Analysis Start     Char (TIMEFL)                  Cond Cond         The level of imputation of analysis start time. Imputation flags are described in ADaMIG v1.2
              Time Imputation                                                     Section 3.1.3, Date and Time Imputation Flag Variables.
              Flag                                                                Conditional on whether ASTTM (or the time part of ASTDTM) was imputed
--ENDTC       End Date/Time of   Char             ISO 8601      Cond Req          Copied from XX.--ENDTC
              Observation                                                         Conditional on whether end date is pertinent for study and is populated in SDTM
                                                                                  This variable label differs depending on the SDTM domain. See SDTM v1.7 Section 2.2.5, Timing
                                                                                  Variables for All Classes, and SDTMIG v3.3 Section 6, Domain Models Based on the General
                                                                                  Observation Classes, for details.
AENDT         Analysis End Date Num                             Cond Req          Created from converting XX.--ENDTC from character ISO 8601 format to numeric date format,
                                                                                  applying imputation rules if specified in the SAP or metadata
                                                                                  Conditional on whether end date is pertinent for study and is populated in SDTM
AENTM         Analysis End       Num                            Cond Cond         Created from converting XX.--ENDTC from character ISO 8601 format to numeric time format,
              Time                                                                applying imputation rules if specified in the SAP or metadata
                                                                                  Conditional on whether end time is pertinent for study and is populated in SDTM
AENDTM        Analysis End       Num                            Cond Cond         Created from converting XX.--ENDTC from character ISO 8601 format to numeric datetime format,
              Datetime                                                            applying imputation rules if specified in the SAP or metadata
                                                                                  Conditional on whether end datetime is pertinent for study and is populated in SDTM
AENDTF        Analysis End Date Char (DATEFL)                   Cond Cond         The level of imputation of analysis end date. Imputation flags are described in the ADaMIG v1.2
              Imputation Flag                                                     Section 3.1.3, Date and Time Imputation Flag Variables.
                                                                                  Conditional on whether AENDT (or the date part of AENDTM) was imputed
AENTMF        Analysis End       Char (TIMEFL)                  Cond Cond         The level of imputation of analysis end time. Imputation flags are described in the ADaMIG v1.2
              Time Imputation                                                     Section 3.1.3, Date and Time Imputation Flag Variables.
              Flag                                                                Conditional on whether AENTM (or the date part of AENDTM) was imputed




© 2021 Clinical Data Interchange Standards Consortium, Inc. All rights reserved                                                                                          Page 17
2021-11-29

CDISC ADaM Structure for Occurrence Data (OCCDS) Implementation Guide (1.1 Final)


    Variable       Variable Label       Type Codelista Controlled         Core SubClass     CDISC Notes
    Name                                               Terms                   ADVERSE
                                                                               EVENT Core
    ASTDY          Analysis Start       Num                               Cond Req          The number of days from an anchor date (not necessarily DM.RFSTDTC) to ASTDT
                   Relative Day                                                             Example derivation:
                                                                                            ASTDT - ADSL.TRTSDT + 1 if ASTDT >= ADSL.TRTSDT, else ASTDT - ADSL.TRTSDT if
                                                                                            ASTDT< ADSL.TRTSDT
                                                                                            This variable may instead be copied from --STDY.
                                                                                            Conditional on whether analysis start relative day is pertinent to the study
    --STDY         Study Day of Start Num                                 Perm Cond         Copied from XX.--STDY
                   of Observation*                                                          ASTDY may differ from --STDY due to date imputation and the option in ADaM to use a reference
                                                                                            date other than SDTM’s RFSTDTC. Including XX.--STDY in addition to ASTDY adds traceability.
                                                                                            For SubClass ADVERSE EVENT, conditional on whether the AESTDY variable is in the SDTM AE
                                                                                            dataset
    AENDY          Analysis End         Num                               Perm Req          The number of days from an anchor date (not necessarily DM.RFSTDTC) to AENDT
                   Relative Day                                                             Example derivation:
                                                                                            AENDT - ADSL.TRTSDT + 1 if AENDT >= ADSL.TRTSDT, else AENDT - ADSL.TRTSDT if
                                                                                            AENDT < ADSL.TRTSDT
                                                                                            This variable may instead be copied from --ENDY.
    --ENDY         Study Day of End     Num                               Perm Cond         Copied from XX.--ENDY
                   of Observation*                                                          AENDY may differ from --ENDY due to date imputation and the option in ADaM to use a reference
                                                                                            date other than SDTM’s RFSTDTC. Including XX.--ENDY in addition to AENDY adds traceability.
                                                                                            For SubClass ADVERSE EVENT, conditional on whether the AEENDY variable is in the SDTM AE
                                                                                            dataset
    ADURN          Analysis Duration    Num                               Perm Perm         Derive from ASTDT (or ASTDTM) and AENDT (or AENDTM).
                   (N)
    ADURU          Analysis Duration    Char (UNIT)                       Cond Cond         Conditional on whether ADURN is included
                   Units
    --DUR          Duration of XX       Char               ISO 8601       Perm Cond         Copied from XX.--DUR
                                                                                            Because --DUR is a collected field and ADURN is derived, the values will often differ. Including
                                                                                            XX.--DUR in addition to ADURN adds traceability.
                                                                                            For SubClass ADVERSE EVENT, conditional on whether the AEDUR variable is in the SDTM AE
                                                                                            dataset
    APERIOD        Period               Num                               Perm Cond         APERIOD is a record-level timing variable that represents the analysis period within the study
                                                                                            associated with the record for analysis purposes. The value of APERIOD (if populated) must be
                                                                                            one of the xx values found in the ADSL TRTxxP variables. See ADaMIG v1.2 Section 3.3.3,
                                                                                            Timing Variables for BDS variables for more information on this variable.
                                                                                            For SubClass ADVERSE EVENT, conditional on whether multiple analysis periods are defined for
                                                                                            the study
    APERIODC       Period (C)           Char                              Perm Perm         Text characterizing to which period the record belongs. One-to-one map to APERIOD.
    APHASE         Phase                Char                              Perm Perm         APHASE is a categorization of timing within a study, for example a higher-level categorization of
                                                                                            APERIOD or an analysis epoch. For example, APHASE could describe spans of time for
                                                                                            SCREENING, ON TREATMENT, and FOLLOW-UP. See the ADaM Implementation Guide v1.2 for
                                                                                            more information on this variable.
a
    Codelists in parenthesis are the names of CDISC Controlled Terminology.




© 2021 Clinical Data Interchange Standards Consortium, Inc. All rights reserved                                                                                                      Page 18
2021-11-29

CDISC ADaM Structure for Occurrence Data (OCCDS) Implementation Guide (1.1 Final)



3.2.5 Indicator Variables
Although some indicator variables can be copied from the SDTM, others are derived within ADaM. If indicator variables other than those shown in this section
are included in the SDTM and pertinent for analysis, these should be copied to ADaM. Other indicator analysis variables that are needed for analysis can also be
added.
Table 3.2.5.1 SDTM Indicator Variables
    Variable Name Variable Label           Type    Codelista      Controlled   Core   SubClass ADVERSE   CDISC Notes
                                                                  Terms               EVENT Core
    --OCCUR           XX Occurrence        Char    (NY)                        Cond   Not used           Copied from XX.--OCCUR
                                                                                                         Conditional on whether this content is pertinent for analysis and is populated in
                                                                                                         SDTM
                                                                                                         SDTM does not allow variable AEOCCUR, so this variable is not available to
                                                                                                         include in ADaM.
    --PRESP           XX Pre-Specified     Char    (NY)                        Cond   Cond               Copied from XX.--PRESP
                                                                                                         Conditional on whether this content is pertinent for analysis and is populated in
                                                                                                         SDTM
a
    Codelists in parenthesis are the names of CDISC Controlled Terminology.

Table 3.2.5.2 OCCDS Indicator Variables
    Variable     Variable Label            Type    Codelist       Controlled   Core   SubClass ADVERSE   CDISC Notes
    Name                                                          Terms               EVENT Core
    ANLzzFL      Analysis Flag zz          Char    Y                           Cond   Cond               The ANLzzFL flag is useful in many circumstances; an example is when more
                                                                                                         than 1 coding path is included for analysis, in which case separate analysis flags
                                                                                                         could be used to denote primary coding path or the records used for analysis
                                                                                                         from each coding path. A codelist of Y, N, null may be used as described
                                                                                                         in ADaMIG v1.2 Section 3.3.8, Indicator Variables for BDS Datasets.
                                                                                                         This variable is conditional on whether analysis records flags are needed for
                                                                                                         analysis.

With adverse events and concomitant medications, typically indicator flags are also assigned based on the timing of the analysis record in relation to the study.
Tables 3.2.5.3, 3.2.5.4, and 3.2.5.5 include some common indicator flags for these types of data.
Table 3.2.5.3 Adverse Events Indicator Variables
    Variable       Variable Label         Type     Codelista      Controlled   Core   SubClass ADVERSE   CDISC Notes
    Name                                                          Terms               EVENT Core
    TRTEMFL        Treatment              Char     Y                           Cond   Req                Treatment-emergent flag as defined for analysis
                   Emergent Analysis                                                                     Example derivation:
                   Flag                                                                                  If ADSL.TRTSDT<=ASTDT<=ADSL.TRTEDT + x days then TRTEMFL="Y"
                                                                                                         The number x in this derivation is defined by the producer and often incorporates
                                                                                                         the known half-life of the drug.
                                                                                                         For datasets other than SubClass ADVERSE EVENT, this variable is conditional
                                                                                                         on whether the concept of treatment emergent is a key feature of the analysis.
    TREMxxFL       Treatment              Char     Y                           Cond   Cond               This variable is required if there are multiple periods where treatment emergence
                   Emergent Period xx                                                                    is a key feature of the analysis for each period.
                   Flag                                                                                  If TREMxxFL is included, TRTEMFL is defined as the overall treatment-
                                                                                                         emergent flag.




© 2021 Clinical Data Interchange Standards Consortium, Inc. All rights reserved                                                                                                    Page 19
2021-11-29

CDISC ADaM Structure for Occurrence Data (OCCDS) Implementation Guide (1.1 Final)


Variable           Variable Label         Type     Codelista      Controlled   Core   SubClass ADVERSE   CDISC Notes
Name                                                              Terms               EVENT Core
TRTEMwFL           Treatment              Char     Y                           Perm   Perm               This variable is used if there are other analysis needs (e.g., different cut-offs)
                   Emergent Analysis                                                                     where treatment emergence is a key feature of the analysis.
                   w Flag                                                                                If TREMwFL is included, TRTEMFL is defined as the overall treatment-emergent
                                                                                                         flag.
AETRTEM            Treatment              Char     (NY)                        Perm   Cond               Treatment-emergent flag from SDTM, if available. See SDTMIG v3.3, Appendix
                   Emergent Flag                                                                         C2, Supplemental Qualifiers Name Codes, for more information.
                                                                                                         Derivation:
                                                                                                         SUPPAE.QVAL where QNAM="AETRTEM"
                                                                                                         TRTEMFL may differ from AETRTEM due to different definitions, date
                                                                                                         imputation, and other analysis rules. Including AETRTEM in addition to
                                                                                                         TRTEMFL will add traceability.
                                                                                                         For SubClass ADVERSE EVENT, conditional on whether the AETRTEM variable
                                                                                                         is in the SDTM AE dataset and populated
a
    Codelists in parenthesis are the names of CDISC Controlled Terminology.

Table 3.2.5.4 Concomitant Medications Indicator Variables
Variable           Variable Label        Type      Codelist       Controlled   Core   SubClass ADVERSE   CDISC Notes
Name                                                              Terms               EVENT Core
ONTRTFL            On Treatment          Char      Y                           Cond   Perm               Character indicator of whether the observation occurred while the subject was
                   Record Flag                                                                           on treatment. A codelist of Y, N, null may be used as described in ADaMIG
                                                                                                         Section 3.3.8, Indicator Variables for BDS Datasets.
                                                                                                         Example derivation:
                                                                                                         If ADSL.TRTSDT <= ASTDT <= ADSL.TRTEDT then ONTRTFL = "Y"
                                                                                                         This variable is conditional on whether the concept of on treatment is a feature of
                                                                                                         the study and used in analysis.
ONTRxxFL           On Treatment          Char      Y                           Perm   Perm               This variable is used if there are multiple periods where on treatment is a key
                   Period xx Flag                                                                        feature of the analysis for each period.
                                                                                                         If ONTRxxFL is included, ONTRTFL is defined as the overall on-treatment flag.
ONTRTwFL           On Treatment          Char      Y                           Perm   Perm               This variable is used if there are other analysis needs (e.g., different cut-offs)
                   Record w Flag                                                                         where on treatment is a key feature of the analysis.
                                                                                                         If ONTRTwFL is included, ONTRTFL is defined as the overall on-treatment flag.

Table 3.2.5.5 Adverse Event and Concomitant Medications Indicator Variables
Variable           Variable Label        Type      Codelist       Controlled   Core   SubClass ADVERSE   CDISC Notes
Name                                                              Terms               EVENT Core
PREFL              Pre-treatment Flag              Y                           Cond   Cond               Character indicator of whether the observation occurred before the subject
                                         Char                                                            started treatment
                                                                                                         Example derivation:
                                                                                                         If ASTDT < ADSL.TRTSDT then PREFL="Y"
                                                                                                         This variable is conditional on whether the concept of pre-treatment is a feature
                                                                                                         of the study and used in analysis.
FUPFL              Follow-up Flag        Char      Y                           Cond   Cond               Character indicator of whether the observation occurred while the subject was
                                                                                                         on follow-up
                                                                                                         Example derivation:
                                                                                                         If ASTDT > ADSL.TRTEDT then FUPFL="Y"
                                                                                                         This variable is conditional on whether the concept of follow-up is a feature of
                                                                                                         the study and used in analysis.




© 2021 Clinical Data Interchange Standards Consortium, Inc. All rights reserved                                                                                                    Page 20
2021-11-29

CDISC ADaM Structure for Occurrence Data (OCCDS) Implementation Guide (1.1 Final)



3.2.6 Occurrence Flag Variables
Occurrence flags can be used to prepare data for analysis. They are typically created by sorting the data in the required order and then flagging the first treatment-
emergent record. The use of the word “first” in this section does not necessarily mean chronological, although that is an option. The more common occurrence
flags and a structure for additional flags are shown in Tables 3.2.6.1 and 3.2.6.2.
Table 3.2.6.1 OCCDS Occurrence Flag Variables
Variable      Variable Label            Type   Codelist Controlled      Core SubClass ADVERSE   CDISC Notes
Name                                                    Terms                EVENT Core
AOCCFL        1st Occurrence within     Char   Y                        Perm Perm               Character indicator for the first occurrence of any event/intervention/finding within the
              Subject Flag                                                                      subject
                                                                                                Example derivation: Sort the data in the required order and flag the first treatment
                                                                                                emergent record for each subject.
AOCCPFL       1st Occurrence of         Char   Y                        Perm Perm               Character indicator for the first occurrence of the preferred term within the subject
              Preferred Term Flag                                                               Example derivation: Sort the data in the required order and flag the first treatment
                                                                                                emergent record for each --DECOD for each subject.
AOCCIFL       1st Max Sev./Int.         Char   Y                        Perm Perm               Character indicator for the first occurrence of the event/intervention/finding with the
              Occurrence Flag                                                                   maximum severity/intensity within the subject
                                                                                                Example derivation: Sort the data in the required order and flag the first treatment
                                                                                                emergent record for maximum severity for each subject.
AOCCPIFL      1st Max Sev./Int. Occur   Char   Y                        Perm Perm               Character indicator for the first occurrence of the maximum severity/intensity within
              Within PT Flag                                                                    the subject and preferred term
                                                                                                Example derivation: Sort the data in the required order and flag the first treatment
                                                                                                emergent record for maximum severity within preferred term for each subject.
AOCCzzFL      1st Occurrence of ...     Char   Y                        Perm Perm               Additional flag variables as needed for analysis. Derivation rules for these flags need
                                                                                                to be described in the metadata.

Table 3.2.6.2 MedDRA Occurrence Flag Variables
Variable      Variable Label            Type Codelist Controlled        Core SubClass ADVERSE   CDISC Notes
Name                                                  Terms                  EVENT Core
AOCCSFL       1st Occurrence of SOC     Char Y                          Perm Perm               Character indicator for the first occurrence of the system organ class within the
              Flag                                                                              subject
                                                                                                Example derivation: Sort the data in the required order and flag the first treatment-
                                                                                                emergent record for each body system for each subject.
AOCCSIFL      1st Max Sev./Int. Occur   Char Y                          Perm Perm               Character indicator for the first occurrence of the maximum severity/intensity within
              Within SOC Flag                                                                   the subject and system organ class
                                                                                                Example derivation: Sort the data in the required order and flag the first treatment-
                                                                                                emergent record for maximum severity within body system for each subject.




© 2021 Clinical Data Interchange Standards Consortium, Inc. All rights reserved                                                                                                 Page 21
2021-11-29

CDISC ADaM Structure for Occurrence Data (OCCDS) Implementation Guide (1.1 Final)



3.2.7 Treatment/Dose Variables
The treatment variable used for analysis must be included. Typically, this would be TRTP, TRTA, TRTxxP, or TRTxxA. See ADaMIG v1.2 Section 3.2, ADSL
Variables, and Section 3.3.2, Record-Level Treatment and Dose Variables for BDS Datasets, for more details on these variables (available at
https://www.cdisc.org/standards/foundational/adam/). Additional dosing variables may also be included.
Table 3.2.7.1 Treatment/Dose Variables
    Variable        Variable Label                Type Codelista Controlled        Core SubClass ADVERSE      CDISC Notes
    Name                                                         Terms                  EVENT Core
    DOSEON          Treatment Dose at Record      Num                              Perm Perm                  Dose received at the point in time of the record start date
                    Start                                                                                     Example derivation:
                                                                                                              Obtained from EX.EXDOSE where --STDTC falls between the values of
                                                                                                              EX.EXSTDTC and EX.EXENDTC
    DOSCUMA         Cumulative                    Num                              Perm Perm                  Cumulative actual study drug dosage at the point in time of the record start
                    Actual Treatment Dose                                                                     date

    DOSEU           Treatment Dose Units          Char (UNIT)                      Cond Cond                  The units associated with DOSEON and/or DOSCUMA. Conditional on
                                                                                                              whether DOSEON and/or DOSCUMA are included.
a
    Codelists in parenthesis are the names of CDISC Controlled Terminology.


3.2.8 Descriptive Variables
Variables that describe the record are often used in analysis. Include these and any other SDTM variables if used in analysis. If the analysis version of the
variable differs from the version in the SDTM, additional variables must be added using the conventions below and described in Section 3.2, Variable Metadata.
Table 3.2.8.1 lists some common descriptive variables that are often included in ADAE. Any other SDTM variables should be included as appropriate (e.g.
AEOUT, AESDTH).
Table 3.2.8.1 Adverse Event Descriptive Variables
    Variable        Variable Label             Type Codelista         Controlled   Core SubClass           CDISC Notes
    Name                                                              Termsb            ADVERSE EVENT
                                                                                        Core
    --SER           Serious Event              Char (NY)                           Perm Req                XX.--SER
    --SEV           Severity/Intensity         Char (AESEV) or                     Perm Cond               XX.--SEV
                                                    (SEVRS)                                                For SubClass ADVERSE EVENT, conditional on whether the --SEV variable is in
                                                                                                           the SDTM AE dataset. Note that either --SEV or --TOXGR should be included in
                                                                                                           SDTM.
    --SEVN          Severity/Intensity (N)     Num 1, 2, 3                         Perm Perm               Code XX.--SEV to numeric
                                                                                                           Low intensity should correspond to low value
    ASEV            Analysis                   Char                   *            Perm Perm               Apply imputation rules for missing severity of adverse events as specified in the
                    Severity/Intensity                                                                     SAP or metadata. May change case of text, such as from all uppercase in --SEV
                                                                                                           to mixed case in ASEV.
    ASEVN           Analysis                   Num 1, 2, 3                         Perm Perm               Code ASEV to numeric
                    Severity/Intensity (N)                                                                 Low intensity should correspond to low value
    SEVGRy          Pooled Severity Group      Char                   *            Perm Perm               Pooled grouping of AE severity for analysis (e.g., mild/moderate, severe)
                    y
    SEVGRyN         Pooled Severity Group      Num                    *            Perm Perm               Code SEVGRy to numeric
                    y (N)                                                                                  Low intensity should correspond to low value
    --REL           Causality                  Char                   *            Perm Req                XX.--REL


© 2021 Clinical Data Interchange Standards Consortium, Inc. All rights reserved                                                                                                       Page 22
2021-11-29

CDISC ADaM Structure for Occurrence Data (OCCDS) Implementation Guide (1.1 Final)


    Variable        Variable Label               Type Codelista           Controlled         Core SubClass         CDISC Notes
    Name                                                                  Termsb                  ADVERSE EVENT
                                                                                                  Core
    --RELN          Causality (N)                Num                      *                  Perm Perm             Code XX.--REL to numeric
                                                                                                                   Low relation should correspond to low value
    AREL            Analysis Causality           Char                     *                  Perm Perm             Apply imputation rules for missing causality of study drug as specified in the SAP
                                                                                                                   or metadata. May change case of text, such as from all uppercase in --REL to
                                                                                                                   mixed case in AREL.
    ARELN           Analysis Causality (N)       Num                      *                  Perm Perm             Code AREL to numeric
    RELGRy          Pooled Causality Group       Char                     *                  Perm Perm             Pooled grouping of causality of study drug for analysis (e.g. related, not related)
                    y
    RELGRyN         Pooled Causality Group       Num                      *                  Perm Perm             Code of RELGRy to numeric
                    y (N)                                                                                          Low relation should correspond to low value
    --TOXGR         Standard Toxicity            Char                     *                  Perm Cond             XX.--TOXGR
                    Grade                                                                                          For SubClass ADVERSE EVENT, conditional on whether the --TOXGR variable is
                                                                                                                   in the SDTM AE dataset. Note that either --SEV or --TOXGR should be included in
                                                                                                                   SDTM.
    --TOXGRN        Standard Toxicity            Num                      *                  Perm Perm             Code --TOXGR to numeric
                    Grade (N)                                                                                      Low toxicity should correspond to low value
    ATOXGR          Analysis Toxicity Grade      Char                     *                  Perm Perm             Toxicity grade for analysis. May be based on --TOXGR or an imputed or assigned
                                                                                                                   value. May change case of text, such as from all uppercase in --TOXGR to mixed
                                                                                                                   case in ATOXGR.
    ATOXGRN         Analysis Toxicity Grade      Num                      *                  Perm Perm             Code ATOXGR to numeric
                    (N)                                                                                            Low toxicity should correspond to low value
    TOXGGRy         Pooled Toxicity Grade        Char                     *                  Perm Perm             Pooled grouping of toxicity grade for analysis
                    Group y
    TOXGGRyN        Pooled Toxicity Grade        Num                      *                  Perm Perm             Code of TOXGGRy to numeric
                    Group y (N)                                                                                    Low toxicity should correspond to low value
    --ACN           Action Taken with Study      Char (ACN)                                  Perm Cond             XX.--ACN
                    Treatment                                                                                      Required if XX.--ACN is present and populated
a
    Codelists in parenthesis are the names of CDISC Controlled Terminology.
b
    Asterisk indicates variable may be subject to producer-defined controlled terminology.


Medical history data typically does not contain descriptive variables. If needed for analysis, use variables as shown in Table 3.2.8.1 for adverse events, replacing
the prefix “AE” with “MH”.
Table 3.2.8.2 lists some common descriptive variables that are often included in ADCM. Any other SDTM variables should be included as appropriate.
Table 3.2.8.2 Concomitant Medications Descriptive Variables
    Variable Name          Variable Label                    Type      Codelist      Controlled Terms     Core    CDISC Notes
    --STAT                 Completion Status                 Char                                         Perm    XX.--STAT
    --INDC                 Indication                        Char                                         Perm    XX.--INDC
    --DOSE                 Dose per Administration           Num                                          Perm    XX.--DOSE
    --DOSFRM               Dose Form                         Char                                         Perm    XX.--DOSFRM
    --DOSRGM               Intended Dose Regimen             Char                                         Perm    XX.--DOSRGM
    --ROUTE                Route of Administration           Char                                         Perm    XX.--ROUTE

Concomitant medication descriptive variables are not used in the ADVERSE EVENT SubClass.




© 2021 Clinical Data Interchange Standards Consortium, Inc. All rights reserved                                                                                                                Page 23
2021-11-29

CDISC ADaM Structure for Occurrence Data (OCCDS) Implementation Guide (1.1 Final)



3.2.9 Standardized MedDRA Query Variables
Standardized MedDRA Queries (SMQs; see https://www.meddra.org/standardised-meddra-queries)[4] are becoming increasingly common in clinical trial safety
evaluations, particularly when known or suspected safety issues are associated with experimental compounds. In addition, customized queries (CQs) are often
used to modify an SMQ or identify records of special interest. Table 3.2.9.1 lists variables used to identify SMQs and CQs, where zz is replaced with a zero-
padded 2-digit integer (01-99) for each SMQ or CQ of interest. This ordering can be based on importance or some other producer-defined criteria. It is
recommended that ordering be consistent across studies within a development program, but it is recognized that there may be situations where this is not possible
or practical.
Table 3.2.9.1 Standardized MedDRA Query Variables
Variable       Variable Label   Type Codelist     Controlled    Core SubClass     CDISC Notes
Name                                              Terms              ADVERSE
                                                                     EVENT Core
SMQzzNAM       SMQ zz Name      Char                            Cond Cond         The Standardized MedDRA Query name. Would be blank for terms that are not in the SMQ.
                                                                                  Therefore this variable could be blank for all records if no terms within the study were included in the
                                                                                  SMQ.
                                                                                  Conditional on whether SMQ analysis is done
SMQzzCD        SMQ zz Code      Num                             Perm Perm         The standardized MedDRA queries number code
SMQzzSC        SMQ zz Scope     Char BROAD,                     Cond Cond         The search strategy for SMQs can be narrow or broad. The preferred terms that are narrow in
                                     NARROW                                       scope have high specificity for identifying events of interest, whereas the broad terms have high
                                                                                  sensitivity. By definition, all narrow terms are also considered within the broad scope. Therefore, to
                                                                                  summarize all broad terms, terms with either narrow or broad would be considered. Will be null for
                                                                                  terms that do not meet the criteria.
                                                                                  Conditional on whether SMQ analysis is done
SMQzzSCN       SMQ zz Scope     Num 1, 2                        Perm Perm         Will be null for terms that do not meet the criteria
               (N)
CQzzNAM        Customized       Char                            Cond Cond         The CQ name or name of the adverse event of special interest category based on a grouping of
               Query zz Name                                                      terms. Would be blank for terms that are not in the CQ.
                                                                                  Conditional on whether CQ analysis is done
                                                                                  Examples: “DERMATOLOGICAL EVENTS” “CARDIAC EVENTS”, “IARS (INFUSION ASSOCIATED
                                                                                  REACTIONS)”
ADECODy        Analysis         Char                            Perm Perm         The terms used for the analysis when combining multiple customized query or multiple standardized
               Dictionary-                                                        MedDRA queries and the original MedDRA dictionary terms under 1 variable
               Derived Term y                                                     Although designed for MedDRA queries, this variable could be used for other OCCDS analysis
                                                                                  needs.



3.2.10         Original or Prior Coding Variables
Keeping original coding variables is not common, but there are a couple of instances where it might be helpful:
     •     When a study is mapped to one version of a mapping dictionary for an interim analysis and another for final analysis
     •     When studies using different versions of a mapping dictionary are pooled together for an integrated analysis
Because the dictionary-coded values may change with each version, counts for study tables can differ between versions for the same study. Therefore, keeping
the original variables provides traceability to original (or prior) analysis(es).



© 2021 Clinical Data Interchange Standards Consortium, Inc. All rights reserved                                                                                                  Page 24
2021-11-29

CDISC ADaM Structure for Occurrence Data (OCCDS) Implementation Guide (1.1 Final)



The variables described below provide traceability to original (or prior) analysis(es). The suffix “w” represents an integer (1-9) corresponding to a previous
version. Include the dictionary name and version as part of the metadata for each variable.
These variable names at this time are recommendations only. Additional prior or original variables needed for traceability may be added following the same
conventions. There is an ADaM subteam working on integration, and this group may create different naming conventions for that type of analysis.
Table 3.2.10.1 Original or Prior MedDRA Coding Variables
 Variable          Variable Label                          Type     Codelist Controlled               Core SubClass ADVERSE                CDISC Notes
 Name                                                                        Termsa                        EVENT Core
 DECDORGw          PT in Original Dictionary w             Char              MedDRAw                  Perm Perm                            Original preferred term coding of XX.--TERM using MedDRA or
                                                                                                                                           other dictionary version
                                                                                                                                           X.X.
 BDSYORGw          SOC in Original Dictionary w            Char                 MedDRAw               Perm Perm                            Original body system coding of XX.--TERM using MedDRA or other
                                                                                                                                           dictionary version
                                                                                                                                           X.X.
 HLGTORGw          HLGT in Original Dictionary w           Char                 MedDRAw               Perm Perm                            Original HLGT coding of XX.--TERM using MedDRA or other
                                                                                                                                           dictionary version X.X
 HLTORGw           HLT in Original Dictionary w            Char                 MedDRAw               Perm Perm                            Original HLT coding of XX.--TERM using MedDRA or other
                                                                                                                                           dictionary version X.X.
 LLTORGw           LLT in Original Dictionary w            Char                 MedDRAw               Perm Perm                            Original LLT coding of XX.--TERM using MedDRA or other
                                                                                                                                           dictionary version X.X.
 LLTNORGw          LLT Code in Original Dictionary w       Char                 MedDRAw               Perm Perm                            Original LLT code of XX.--TERM using MedDRA or other dictionary
                                                                                                                                           version X.X.
a
  For each version of an external dictionary, a different reference name must be used. The individual reference names will point to a dedicated section in the data definition file where all external dictionaries
used in the analysis are listed, including dictionary name and version.


Table 3.2.10.2 Original or Prior WHO Drug Coding Variables
 Variable          Variable Label                          Type Codelist Controlled                  Core SubClass ADVERSE               CDISC Notes
 Name                                                                    Termsa                           EVENT Core
 DECDORGw          Standardized Med Name in Orig           Char          WHODRUGw                    Perm Perm                           Original standardized medication name of CM.CMTRT using WHO
                   Dict w                                                                                                                Drug
                                                                                                                                         version X.X
 CLASORGw          Medication Class in Orig                Char                WHODRUGw              Perm Perm                           Original medication class of CM.CMTRT using WHO Drug version
                   Dictionary w                                                                                                          X.X
 CLCDORGw          Medication Class Code in Orig           Char                WHODRUGw              Perm Perm                           Original medication class code of CM.CMTRT using WHO Drug
                   Dict w                                                                                                                version X.X
 ATyCORGw          ATC Level y Code in Orig                Char                WHODRUGw              Perm Perm                           Original ATC Level y code of CM.CMTRT using WHO Drug version
                   Dictionary w                                                                                                          X.X
 ATyTORGw          ATC Level y Text in Orig                Char                WHODRUGw              Perm Perm                           Original ATC Level y text of CM.CMTRT using WHO Drug version
                   Dictionary w                                                                                                          X.X
a
  For each version of an external dictionary, a different reference name must be used. The individual reference names will point to a dedicated section in the data definition file where all external dictionaries
used in the analysis are listed, including dictionary name and version.


3.2.11            User-specified Variable Naming Conventions
ADaM allows for user-specified variable names when creating additional variables not specified in this document or the ADaMIG. The ADaMIG has variable
name fragments and other conventions, which are often needed with ADSL and BDS datasets. OCCDS datasets may have fewer derived variables, but there are
some conventions and fragments described here to help build easily understood variable names.


© 2021 Clinical Data Interchange Standards Consortium, Inc. All rights reserved                                                                                                                               Page 25
2021-11-29

CDISC ADaM Structure for Occurrence Data (OCCDS) Implementation Guide (1.1 Final)



Many variables from SDTM data are copied to ADaM with no change to the variable name, label, or content. ADaM follows a principle of harmonization (same
name, same meaning, same values) as described in the ADaMIG Section 3.1.1, General Naming Conventions. This means that when an SDTM variable name is
in an ADaM dataset, the values within that variable are exactly the same as the SDTM data.
Many times, a modified version of an SDTM variable is needed, such as when missing data is imputed. As shown in Section 3.2.8, Descriptive Variables, when
creating an analysis version of an SDTM descriptive variable, the prefix “A” (for Analysis) replaces the 2-letter SDTM domain code. This same convention can
be used to create analysis versions of variables not specified in Section 3.2.8. For example, if changes needed to be made to AEBODSYS for analysis, the
variable name ABODSYS (with a prefix of “A” instead of “AE”) would convey that it is the analysis version of the AEBODSYS variable, and that the value of
ABODSYS may not be the same as AEBODSYS on some records.
When variable content remains unmodified but the name of the SDTM variable cannot be used in the analysis dataset, the prefix “U” (for "unmodified") can be
used instead of the 2-letter SDTM domain code. For example, if combining records from Adverse Events (AE) and Medical History (MH) into an analysis
dataset, it would likely not be analysis-ready to have body system information spread across 2 variables, AEBODSYS on the rows from the AE dataset and
MHBODSYS on the rows from the MH dataset. Instead, a single variable that contains the value from AEBODSYS or MHBODSYS is needed. Using the “A”
prefix and calling the variable ABODSYS implies that it is an analysis version of a variable, and that the value of ABODSYS may not be the same as
AEBODSYS and MHBODSYS on some records. If no changes are made to AEBODSYS and MHBODSYS, using instead a “U” prefix allows for a single
column called UBODSYS but makes it clear that no modifications to the content of the SDTM variables were made. An example with variables using the “U”
prefix can be found in Section 10, Example 7: Analysis of Adverse Events from Multiple Input Domains.

3.3 Other Metadata
Because OCCDS does not use parameters, there is typically no need for value-level metadata. However value level metadata may be useful in some cases, as
illustrated in Section 14, Example 11: Analysis of Protocol Deviations.
The other type of ADaM metadata which may be included is the analysis results metadata. The CDISC Define-XML v2.1 and Analysis Results Metadata (ARM)
v1.0 for Define-XML v2.0 release packages (available at https://www.cdisc.org/standards/data-exchange/define-xml) both contain examples of how to represent
analysis results metadata.




© 2021 Clinical Data Interchange Standards Consortium, Inc. All rights reserved                                                                       Page 26
2021-11-29

CDISC ADaM Structure for Occurrence Data (OCCDS) Implementation Guide (1.1 Final)




4 Example 1: Analysis of Treatment-emergent Adverse Event
The basic summary of adverse event frequencies described in ICH Guideline E3[5] Sections 12.2.2 and 14.3.1 should be used to display frequencies in treatment
and control groups.
This example displays a simple summary of all treatment-emergent adverse events. The example is based on a 2-treatment parallel design study. The display
summarizes (1) the number of subjects in each treatment group in whom the adverse event occurred and (2) the rate of occurrence in each treatment group.

4.1 Analysis Display Example Layout - Example 1
Figure 4.1.1 Example of Summary of Treatment-emergent Adverse Eventsa
                          Summary of Treatment-emergent Adverse Events by
                              System Organ Class and Preferred Term
                                    Analysis Population: Safety




a
    The style of the display of the results of an analysis is determined by the producer. The example is intended to illustrate content, not appearance.




© 2021 Clinical Data Interchange Standards Consortium, Inc. All rights reserved                                                                            Page 27
2021-11-29

CDISC ADaM Structure for Occurrence Data (OCCDS) Implementation Guide (1.1 Final)



4.2 Sample ADaM Variable Metadata - Example 1
This example describes an adverse events ADaM dataset named ADAE. ADAE is not a required dataset name.
Table 4.2.1 Example of ADaM Variable Metadata
Dataset   Variable      Variable Label        Variable   Codelist                 Controlled Terms Source          Derivation
Name      Name                                Type
ADAE      STUDYID       Study Identifier      text                                                AE.STUDYID
ADAE      USUBJID       Unique Subject        text                                                AE.USUBJID
                        Identifier
ADAE      AESEQ         Sequence Number       integer                                             AE.AESEQ
ADAE      AETERM        Reported Term for     text                                                AE.AETERM
                        the Adverse Event
ADAE      AEDECOD       Dictionary-Derived    text                                MedDRA          AE.AEDECOD
                        Term                                                                      MedDRA Version
                                                                                                  XX.X
ADAE      AEBODSYS Body System or             text                                MedDRA          AE.AEBODSYS
                   Organ Class                                                                    MedDRA Version
                                                                                                  XX.X
ADAE      TRTEMFL       Treatment             text       Y                                                         If ADSL.TRTSDT <= ASTDT<=(ADSL.TRTEDT +14) then
                        Emergent Analysis                                                                          TRTEMFL="Y"
                        Flag
ADAE      PREFL         Pre-treatment Flag    text       Y                                                         If ASTDT < ADSL.TRTSDT then PREFL="Y"
ADAE      FUPFL         Follow-up Flag        text       Y                                                         If ASTDT > ADSL.TRTEDT+14 then FUPFL="Y"
ADAE      AESTDTC       Start Date/Time of    date                                ISO 8601        AE.AESTDTC
                        Adverse Event
ADAE      ASTDT         Analysis Start Date   integer                                                              <Producer will insert derivation here>
ADAE      ASTDTF        Analysis Start Date   text       D, M, Y                                                   If start date is completely missing or missing the year then
                        Imputation Flag                                                                            ASTDTF="Y"
                                                                                                                   Else if start date has month missing then ASTDTF="M"
                                                                                                                   Else if start date has day missing then ASTDTF="D"
ADAE      AEENDTC       End Date/Time of      date                                ISO 8601        AE.AEENDTC
                        Adverse Event
ADAE      AENDT         Analysis End Date     integer                                                              <Producer will insert derivation here>
ADAE      AENDTF        Analysis End Date     text       D, M, Y                                                   If end date is completely missing or missing the year then
                        Imputation Flag                                                                            AENDTF="Y"
                                                                                                                   Else if end date has month missing then AENDTF="M"
                                                                                                                   Else if end date has day missing then AENDTF="D"
ADAE      AESER         Serious Event         text       Y, N                                     AE.AESER
ADAE      APHASE        Phase                 text       PRE-TREATMENT,                                            If ASTDT<ADSL.TRTSDT, then APHASE="PRE-
                                                         TREATMENT, FOLLOW-UP                                      TREATMENT"
                                                                                                                   Else if ASTDT > ADSL.TRTEDT + 14 days then
                                                                                                                   APHASE="FOLLOW-UP",
                                                                                                                   Else APHASE="TREATMENT"
ADAE      AESEV         Severity/Intensity    text       MILD, MODERATE, SEVERE                   AE.AESEV
ADAE      ASEV          Analysis              text       Mild, Moderate, Severe                                    If AE.AESEV="MILD" then ASEV="Mild"
                        Severity/Intensity                                                                         Else if AE.AESEV="MODERATE" then ASEV="Moderate"
                                                                                                                   Else if AE.AESEV is equal to "SEVERE" or
                                                                                                                   Severity/Intensity is missing then ASEV="Severe"




© 2021 Clinical Data Interchange Standards Consortium, Inc. All rights reserved                                                                                         Page 28
2021-11-29

CDISC ADaM Structure for Occurrence Data (OCCDS) Implementation Guide (1.1 Final)


Dataset   Variable      Variable Label        Variable   Codelist                 Controlled Terms Source        Derivation
Name      Name                                Type
ADAE      ASEVN         Analysis              integer    1, 2, 3                                                 Map ASEV to ASEVN in the following manner:
                        Severity/Intensity                                                                       "Mild" = 1
                        (N)                                                                                      "Moderate" = 2
                                                                                                                 "Severe" = 3
ADAE      AEREL         Causality             text       NOT RELATED, UNLIKELY                    AE.AEREL
                                                         RELATED, POSSIBLY
                                                         RELATED, PROBABLY
                                                         RELATED, DEFINITELY
                                                         RELATED
ADAE      RELGR1        Pooled Causality      text       Not Related, Related                                    If AE.AEREL is equal to "NOT RELATED" or "UNLIKELY
                        Group 1                                                                                  RELATED" then RELGR1="Not Related" Else if AE.AEREL
                                                                                                                 is equal to "POSSIBLY RELATED" or "PROBABLY
                                                                                                                 RELATED" or "DEFINITELY RELATED" or Causality is
                                                                                                                 missing then RELGR1="Related"
ADAE      RELGR1N       Pooled Causality      integer    0, 1                                                    Map RELGR1 to RELGR1N in the following manner:
                        Group 1 (N)                                                                              "Not Related" = 0
                                                                                                                 "Related" = 1
ADAE      SAFFL         Safety Population     text       Y, N                                     ADSL.SAFFL
                        Flag
ADAE      AOCCFL        1st Occurrence        text       Y                                                       Subset ADAE to Treatment Emergent Adverse Events
                        within Subject Flag                                                                      (TRTEMFL="Y")
                                                                                                                 Sort by Subject (USUBJID), Analysis Start Date (ASTDT),
                                                                                                                 and Sequence Number (AESEQ) and flag the first record
                                                                                                                 (set AOCCFL="Y") within each Subject
ADAE      AOCCSFL       1st Occurrence of     text       Y                                                       Subset ADAE to Treatment Emergent Adverse Events
                        SOC Flag                                                                                 (TRTEMFL="Y")
                                                                                                                 Sort by Subject (USUBJID), System Organ Class
                                                                                                                 (AEBODSYS), Analysis Start Date (ASTDT), and
                                                                                                                 Sequence Number (AESEQ) and flag the first record (set
                                                                                                                 AOCCSFL ="Y") within each Subject and SOC
ADAE      AOCCPFL       1st Occurrence of     text       Y                                                       Subset ADAE to Treatment Emergent Adverse Events
                        Preferred Term                                                                           (TRTEMFL="Y")
                        Flag                                                                                     Sort by Subject (USUBJID), System Organ Class
                                                                                                                 (AEBODSYS), Preferred Term (AEDECOD) Analysis Start
                                                                                                                 Date (ASTDT), and Sequence Number (AESEQ) and flag
                                                                                                                 the first record (set AOCCPFL ="Y") within each Subject,
                                                                                                                 SOC, and PT
ADAE      TRTA          Actual Treatment      text       Drug A, Drug B                           ADSL.TRT01A
ADAE      TRTAN         Actual Treatment      integer    1, 2                                     ADSL.TRT01AN   Drug A = 1
                        (N)                                                                                      Drug B = 2
ADAE      TRTSDT        Date of First         integer                                             ADSL.TRTSDT
                        Exposure to
                        Treatment
ADAE      TRTEDT        Date of Last          integer                                             ADSL.TRTEDT
                        Exposure to
                        Treatment
ADAE      AGE           Age                   integer                                             ADSL.AGE
ADAE      AGEGR1        Pooled Age Group      text       <65, >=65                                ADSL. AGEGR1
                        1
ADAE      SEX           Sex                   text       M, F                                     ADSL.SEX




© 2021 Clinical Data Interchange Standards Consortium, Inc. All rights reserved                                                                                   Page 29
2021-11-29

CDISC ADaM Structure for Occurrence Data (OCCDS) Implementation Guide (1.1 Final)


Dataset   Variable      Variable Label      Variable   Codelist                    Controlled Terms Source        Derivation
Name      Name                              Type
ADAE      RACE          Race                text       BLACK OR AFRICAN                            ADSL.RACE
                                                       AMERICAN, AMERICAN INDIAN
                                                       OR ALASKA NATIVE, ASIAN,
                                                       NATIVE HAWAIIAN OR OTHER
                                                       PACIFIC ISLANDER, WHITE


4.3 Sample ADaM Data - Example 1
Table 4.3.1 illustrates the adverse events analysis dataset (ADAE) defined in Section 4.2, Sample ADaM Variable Metadata - Example 1. The ADAE dataset in
this example was designed to support some standard subsets and/or classifications of treatment-emergent adverse events including seriousness, severity, and
relationship to study drug. The example describes some of the key variables and records that would be included in the dataset.
Key points to note in the example are:
     1.   The producer of the dataset chose to use a record-level actual treatment variable (TRTA) populated with the same value across all rows in the dataset
          rather than a subject-level treatment variable (TRT01A). For a parallel design, either TRTA or TRT01A could be used as the actual treatment identifier.
          The producer interpreted TRTA as the treatment associated with the record for analysis display purposes and populated the pre-treatment records with
          treatment even though subjects had not yet received treatment at that time.
     2.   Variables such as AESEQ, AETERM, and AESTDTC are copied in from the SDTM AE domain to provide data-point traceability.
     3.   Variables such as AEBODSYS, AEDECOD, AESER, AESEV, and AEREL are copied in from the SDTM AE domain for analysis purposes.
     4.   ASTDT is the AE timing variable used for analysis. Other timing variables (e.g., AENDT, ASTDTF, AENDTF, AESTDTC, AEENDTC, TRTSDT,
          TRTEDT) are supportive variables for metadata traceability.
     5.   The addition of ASEV and RELGR1 allows for the imputation of missing severity and grouping and imputation of relationship to study drug as
          specified in the statistical analysis plan (SAP).
     6.   The occurrence flags (AOCC*FL) are permissible. The main purpose of these flags is to facilitate data-point traceability between records in the dataset
          and unique counts in the summary displays. In addition, if a time-to-event (TTE) analysis is built using adverse events, the flags provide a crucial link
          between the summary records in the TTE BDS and the source of the records in ADAE.
     7.   The core variables of AGE, AGEGR1, SEX, and RACE are included in ADAE to facilitate subgroup analyses and data review.




© 2021 Clinical Data Interchange Standards Consortium, Inc. All rights reserved                                                                              Page 30
2021-11-29

CDISC ADaM Structure for Occurrence Data (OCCDS) Implementation Guide (1.1 Final)



Table 4.3.1 Sample ADaM Dataa
Row   STUDYID   USUBJID    AESEQ   AETERM            AEDECOD       AEBODSYS                TRTEMFL   PREFL   FUPFL   AESTDTC    ASTDT       ASTDTF   AEENDTC    AENDT       AENDTF   AESER   APHASE      AESEV      ASEV       ASEVN   AEREL        RELGR1    RELGR1N   SAFFL   AOCCFL   AOCCSFL   AOCCPFL   TRTA   TRTAN   TRTSDT      TRTEDT      AGE   AGEGR1   SEX   RACE
1     XYZ       XYZ-001-   1       HEADACHE          Headache      Nervous system                    Y               2006-01    01JAN2006   D        2006-01-   22JAN2006            N       PRE-        MILD       Mild       1       NOT          Not       0         Y                                    Drug   1       23JAN2006   15MAY2006   54    <65      M     ASIAN
                001                                                disorders                                                                         22                                      TREATMENT                                 RELATED      Related                                                  A
2     XYZ       XYZ-001-   2       CHRONIC BACK      Back pain     Musculoskeletal and               Y               2006-01-   21JAN2006            2006-01-   28JAN2006            N       PRE-        MODERATE   Moderate   2       NOT          Not       0         Y                                    Drug   1       23JAN2006   15MAY2006   54    <65      M     ASIAN
                001                PAIN                            connective tissue                                 21                              28                                      TREATMENT                                 RELATED      Related                                                  A
                                                                   disorders
3     XYZ       XYZ-001-   3       NOSE BLEEDING     Epistaxis     Respiratory, thoracic             Y               2006-01-   22JAN2006            2006-01-   22JAN2006            N       PRE-        MILD       Mild       1       NOT          Not       0         Y                                    Drug   1       23JAN2006   15MAY2006   54    <65      M     ASIAN
                001                RIGHT NOSTRIL                   and mediastinal                                   22                              22                                      TREATMENT                                 RELATED      Related                                                  A
                                                                   disorders
4     XYZ       XYZ-001-   4       PROBLEMS OF       Hypotension   Vascular disorders      Y                                    23JAN2006   Y                   15MAY2006   Y        N       TREATMENT   MILD       Mild       1       POSSIBLY     Related   1         Y       Y        Y         Y         Drug   1       23JAN2006   15MAY2006   54    <65      M     ASIAN
                001                HYPOTENSION                                                                                                                                                                                         RELATED                                                               A
5     XYZ       XYZ-001-   5       HEADACHE          Headache      Nervous system          Y                         2006-01-   24JAN2006            2006-01    31JAN2006   D        N       TREATMENT   MODERATE   Moderate   2       PROBABLY     Related   1         Y                Y         Y         Drug   1       23JAN       15MAY       54    <65      M     ASIAN
                001                                                disorders                                         24                                                                                                                RELATED                                                               A              2006        2006
6     XYZ       XYZ-001-   6       HEADACHE          Headache      Nervous system          Y                         2006-02    01FEB2006   D        2006-02-   05FEB2006            N       TREATMENT   SEVERE     Severe     3       PROBABLY     Related   1         Y                                    Drug   1       23JAN       15MAY       54    <65      M     ASIAN
                001                                                disorders                                                                         05                                                                                RELATED                                                               A              2006        2006
7     XYZ       XYZ-001-   7       LOOSE STOOL       Diarrhoea     Gastrointestinal        Y                         2006-03-   05MAR2006            2006-03-   06MAR2006            N       TREATMENT              Severe     3       DEFINITELY   Related   1         Y                Y         Y         Drug   1       23JAN       15MAY       54    <65      M     ASIAN
                001                                                disorders                                         05                              06                                                                                RELATED                                                               A              2006        2006
8     XYZ       XYZ-001-   8       ABDOMINAL         Abdominal     Gastrointestinal        Y                         2006-03-   05MAR2006            2006       15MAY2006   M        N       TREATMENT   MODERATE   Moderate   2       DEFINITELY   Related   1         Y                          Y         Drug   1       23JAN       15MAY       54    <65      M     ASIAN
                001                DISCOMFORT        discomfort    disorders                                         05                                                                                                                RELATED                                                               A              2006        2006
9     XYZ       XYZ-001-   9       DIARRHEA          Diarrhoea     Gastrointestinal        Y                         2006-03-   17MAR2006            2006-03-   18MAR2006            N       TREATMENT   MODERATE   Moderate   2       DEFINITELY   Related   1         Y                                    Drug   1       23JAN       15MAY       54    <65      M     ASIAN
                001                                                disorders                                         17                              18                                                                                RELATED                                                               A              2006        2006
10    XYZ       XYZ-001-   10      ABDOMINAL         Abdominal     Gastrointestinal        Y                         2006-03-   17MAR2006            2006-03-   19MAR2006            N       TREATMENT   MILD       Mild       1       DEFINITELY   Related   1         Y                          Y         Drug   1       23JAN       15MAY       54    <65      M     ASIAN
                001                FULLNESS DUE TO   distension    disorders                                         17                              19                                                                                RELATED                                                               A              2006        2006
                                   GAS
11    XYZ       XYZ-001-   11      NAUSEA            Nausea        Gastrointestinal        Y                         2006-04-   20APR2006            2006-04-   22APR2006            N       TREATMENT   MILD       Mild       1       PROBABLY     Related   1         Y                          Y         Drug   1       23JAN       15MAY       54    <65      M     ASIAN
                001                (INTERMITTENT)                  disorders                                         20                              22                                                                                RELATED                                                               A              2006        2006
12    XYZ       XYZ-001-   12      WEAKNESS          Asthenia      General disorders       Y                         2006-05-   17MAY2006            2006-05-   20MAY2006            N       TREATMENT   MILD       Mild       1       POSSIBLY     Related   1         Y                Y         Y         Drug   1       23JAN       15MAY       54    <65      M     ASIAN
                001                                                and administration                                17                              20                                                                                RELATED                                                               A              2006        2006
                                                                   site conditions
13    XYZ       XYZ-001-   13      HEADACHE          Headache      Nervous system          Y                         2006-05-   20MAY2006            2006-05-   22MAY2006            N       TREATMENT   MILD       Mild       1       UNLIKELY     Not       0         Y                                    Drug   1       23JAN       15MAY       54    <65      M     ASIAN
                001                                                disorders                                         20                              22                                                                                RELATED      Related                                                  A              2006        2006
14    XYZ       XYZ-001-   14      HEADACHE          Headache      Nervous system          Y                         2006-05-   23MAY2006            2006-06-   27JUN2006            N       TREATMENT   MILD       Mild       1       UNLIKELY     Not       0         Y                                    Drug   1       23JAN       15MAY       54    <65      M     ASIAN
                001                                                disorders                                         23                              27                                                                                RELATED      Related                                                  A              2006        2006
15    XYZ       XYZ-001-   15      HYPOTENSIVE       Hypotension   Vascular disorders      Y                         2006-05-   27MAY2006            2006-05-   29MAY2006            Y       TREATMENT   SEVERE     Severe     3       UNLIKELY     Not       0         Y                                    Drug   1       23JAN       15MAY       54    <65      M     ASIAN
                001                                                                                                  21                              25                                                                                RELATED      Related                                                  A              2006        2006
16    XYZ       XYZ-001-   16      HEADACHE          Headache      Nervous system                            Y       2006-06-   01JUN2006            2006-06-   01JUN2006            N       FOLLOW-UP   MILD       Mild       1       UNLIKELY     Not       0         Y                                    Drug   1       23JAN       15MAY       54    <65      M     ASIAN
                001                                                disorders                                         01                              01                                                                                RELATED      Related                                                  A              2006        2006
a
 Variables ending in suffix DTC are character Date/Time fields in ISO 8601 format. Variables ending in DT are numeric dates, here shown using SAS date format date9. Other numeric date formats can be used, but care should be taken with newer date formats which might not
be understood by all statistical packages.




© 2021 Clinical Data Interchange Standards Consortium, Inc. All rights reserved                                                                                                                                                                                                                                                                                    Page 31
2021-11-29

CDISC ADaM Structure for Occurrence Data (OCCDS) Implementation Guide (1.1 Final)




5 Example 2: Analysis of Hemorrhages (SMQ)
  among Treatment-emergent Adverse Events
  by Sex
This example demonstrates how to incorporate Standardized MedDRA Queries (SMQs) into an adverse event
analysis data set. In this example, an SMQ for hemorrhages is being used. This particular SMQ is hierarchical with
only narrow-scope terms, including terms referring to different types of hemorrhage, hematoma, bleeding, and so
on. (For a full description of SMQs, see the Introductory Guide for Standardized MedDRA Queries.[4])
Key points to note in the example are:
     1.   The exact name of the SMQ being used in this example is “Haemorrhages (SMQ)”. This precise
          terminology is used throughout the displays.
     2.   This particular SMQ contains only narrow scope terms. However, in order to illustrate best practice, the
          scope is also specified when a reference is made to the SMQ. Although redundant in this particular case, it
          is important to show which scope is being used when providing SMQ-based summaries because the scope
          can have a profound effect on the percentage of subjects who meet certain SMQ criteria.

5.1 Analysis Display Example Layouts - Example 2
Note: The following examples are intended to illustrate content, not appearance. The style of the display of the
results of an analysis is determined by the producer.

Figure 5.1.1 Example SMQ Summary
           Summary of Haemorrhages (SMQ) (Narrow Scope) Adverse Events by
                          Sex and Actual Treatment Group
                             Analysis Population: Safety




© 2021 Clinical Data Interchange Standards Consortium, Inc. All rights reserved                                Page 32
2021-11-29

CDISC ADaM Structure for Occurrence Data (OCCDS) Implementation Guide (1.1 Final)



Figure 5.1.2 Example of SMQ Mosaic Plot
           Mosaic Plot of Haemorrhages (SMQ) (Narrow Scope) Preferred Terms
                           by Sex and Actual Treatment Group
                               Analysis Population: Safety




Figure 5.1.2 Example of SMQ Relative Risk Summary
            Summary of Haemorrhages (SMQ) (Narrow Scope) Preferred Terms
                               Sorted by Relative Risk
                            Analysis Population: Safety




© 2021 Clinical Data Interchange Standards Consortium, Inc. All rights reserved     Page 33
2021-11-29

CDISC ADaM Structure for Occurrence Data (OCCDS) Implementation Guide (1.1 Final)




5.2 Sample ADaM Variable Metadata - Example 2
This example describes an adverse events ADaM dataset named ADAE. ADAE is not a required dataset name. In Table 5.2.1, 4 variables relate to the primary
SMQ of interest (hemorrhage terms): SMQ01CD, SMQ01NAM SMQ01SC, and SMQ01SCN. The first 2 of these variables, SMQ01CD and SMQ01NAM,
contain the numeric code and name for the SMQ from MedDRA. The next 2 variables, SMQ01SC and SMQ01SCN, are character and numeric variables,
respectively, that indicate not only whether or not the given AE meets the criteria for the given SMQ, but also whether the term meets the SMQ’s broad or
narrow scope (the SC suffix is for “scope”).
Table 5.2.1 Example of ADaM Variable Metadata
Dataset Variable        Variable Label          Variable Codelist                 Controlled Source       Derivation                               Comments
Name    Name                                    Type                              Terms

ADAE      USUBJID       Unique Subject          text                                        AE.USUBJID
                        Identifier
ADAE      AETERM        Reported Term for the   text                                        AE.AETERM
                        Adverse Event
ADAE      AEDECOD       Dictionary-Derived      text                              MedDRA    AE.AEDECOD
                        Term
ADAE      AEBODSYS      Body System or Organ    text                              MedDRA    AE.AEBODSYS
                        Class
ADAE      ASTDT         Analysis Start Date     integer                                                   <Producer will insert derivation here>
ADAE      AEPTCD        Preferred Term Code     integer                           MedDRA    AE.AEPTCD
ADAE      SMQ01CD       SMQ 01 Code             integer   20000039                                        Set equal to the SMQ code, if the
                                                                                                          AEPTCD is included in this SMQ.
ADAE      SMQ01NAM      SMQ 01 Name             text      Haemorrhage terms                                                                        Set equal to the controlled
                                                          (excl. laboratory                                                                        term, if the
                                                          terms) (SMQ)                                                                             AEPTCD is included in this
                                                                                                                                                   SMQ.
ADAE      SMQ01SC       SMQ 01 Scope            text      NARROW                                                                                   For this given SMQ, all scopes
                                                                                                                                                   are Narrow.
ADAE      SMQ01SCN      SMQ 01 Scope (N)        integer   2                                               If SMQ01SC="NARROW" then
                                                                                                          SMQ01CN=2




© 2021 Clinical Data Interchange Standards Consortium, Inc. All rights reserved                                                                                          Page 34
2021-11-29

CDISC ADaM Structure for Occurrence Data (OCCDS) Implementation Guide (1.1 Final)



5.3 Sample ADaM Data - Example 2
Table 5.3.1: Sample ADaM Data Showing SMQ Variablesa
    Row USUBJID AETERM                     AEDECOD             AEBODSYS                      ASTDT     AEPTCD SMQ01CD SMQ01NAM                                    SMQ01SC SMQ01SCN
    1   0092017 SCLERAL BLEED              Scleral haemorrhage Eye disorders                 09JUN2009 10050508 20000039 Haemorrhage terms (excl                  NARROW 2
                RIGHT EYE                                                                                                laboratory terms) (SMQ)
    2   0112012 BRUISING OF LEFT           Contusion              Injury, poisoning and      27AUG2008 10050584 20000039 Haemorrhage terms (excl                  NARROW       2
                UPPER ARM                                         procedural complications                               laboratory terms) (SMQ)
    3   0112012 BRUISING TO LEFT           Contusion              Injury, poisoning and      22AUG2007 10050584 20000039 Haemorrhage terms (excl                  NARROW       2
                WRIST                                             procedural complications                               laboratory terms) (SMQ)
    4   0112013 NAUSEA                     Nausea                 Gastrointestinal disorders 16JUN2010 10028813
    5   0112014 NOSE BLEEDING              Epistaxis              Respiratory, thoracic and 22NOV2009 10015090 20000039 Haemorrhage terms (excl                   NARROW       2
                                                                  mediastinal disorders                                  laboratory terms) (SMQ)
    6   0122006    EPISTAXIS               Epistaxis              Respiratory, thoracic and 06NOV2009 10015090 20000039 Haemorrhage terms (excl                   NARROW       2
                                                                  mediastinal disorders                                  laboratory terms) (SMQ)
a
 Variables ending in DT are numeric dates, here shown using SAS date format date9. Other numeric date formats can be used, but care should be taken with newer date formats which might not be understood
by all statistical packages.




© 2021 Clinical Data Interchange Standards Consortium, Inc. All rights reserved                                                                                                                 Page 35
2021-11-29

CDISC ADaM Structure for Occurrence Data (OCCDS) Implementation Guide (1.1 Final)




6 Example 3: Analysis of Peripheral Sensory
  Neuropathy (PSN) Adverse Events by
  Severity and Cumulative Dose Exposure
Some institutions and organizations use standardized coding guidelines (e.g., National Cancer Institute, ACTG's
antiviral therapeutic areas) for reporting of adverse events. These scales may be based upon variables as collected on
AE CRFs, such as a grading scheme based upon severity (AESEV/AESEVN). Other guidelines may be so objective
that some variables—for example, drug relatedness (AEREL/AERELN)—are not captured.
In this example, the AE analysis dataset is used to summarize the frequency of peripheral sensory neuropathy (PSN)
by cumulative dose exposure in an oncology study. PSN was collected on the study CRF at each cycle and at each 6-
month follow-up, and graded as:
         •     0 = None
         •     1 = Asymptomatic; loss of deep tendon reflexes or paresthesia
         •     2 = Moderate symptoms; limiting instrumental activities of daily living (ADL)
         •     3 = Severe symptoms; limiting self-care ADL
         •     4 = Life-threatening consequences; urgent intervention indicated
         •     5 = Death
All these PSN events were coded to "Paresthesia".

6.1 Analysis Display Example Layout - Example 3
Figure 6.1.1 Example of Adverse Event Summary by Cumulative Dose Exposurea
                            Summary of Cumulative Dose Quartiles to First Onset for PSN
                                               by Severity Grade
                                       Analysis Population: Intent-to-Treat
    Cumulative      Number of         PSN grade
    dose            patients          Number (%) of         Number (%) of         Number (%) of         Number (%) of
                    Exposed           patients with grade   patients with grade   patients with grade   patients with grade
                                      ≥1                    ≥2                    ≥3                    4 or 5
    Total number of patients with     x (x.x)               x (x.x)               x (x.x)               x (x.x)
    PSN
    1st quartile   N                  x (x.x)               x (x.x)               x (x.x)               x (x.x)
    2nd quartile   N                  x (x.x)               x (x.x)               x (x.x)               x (x.x)
    3rd quartile   N                  x (x.x)               x (x.x)               x (x.x)               x (x.x)
    4th quartile   N                  x (x.x)               x (x.x)               x (x.x)               x (x.x)
    Median cumulative dose to first   X                     X                     X                     X
    onset (mg/m )2



a
 The style of the display of the results of an analysis is determined by the producer. This example is intended to illustrate
content, not appearance.


6.2 Sample ADaM Variable Metadata - Example 3
This example describes an Adverse Events ADaM dataset named ADAE. ADAE is not a required dataset name.
Table 6.2.1: Sample ADaM Variable Metadata for Selected Variables
    Dataset      Variable        Variable         Variable     Codelist           Controlled Terms Source                 Derivation
    Name         Name            Label            Type

    ADAE         USUBJID         Unique           text                                                  AE.USUBJID
                                 Subject
                                 Identifier
    ADAE         ITTFL           Intent-to-       text         Y, N                                     ADSL.ITTFL
                                 Treat


© 2021 Clinical Data Interchange Standards Consortium, Inc. All rights reserved                                                        Page 36
2021-11-29

CDISC ADaM Structure for Occurrence Data (OCCDS) Implementation Guide (1.1 Final)


Dataset     Variable       Variable    Variable   Codelist         Controlled Terms Source           Derivation
Name        Name           Label       Type

                     Population
                     Flag
ADAE        AEDECOD  Dictionary-       text                        MedDRA          AE.AEDECOD
                     Derived Term
ADAE        AETOXGR  Standard          text       1, 2, 3, 4, 5                    AE.AETOXGR
                     Toxicity
                     Grade
ADAE        AETOXGRN Standard          integer    1, 2, 3, 4, 5                                      Code AE.AETOXGR to numeric
                     Toxicity
                     Grade (N)
ADAE        DOSCUMA  Cumulative        float                                                         Total all values of EX.EXDOSE
                     Actual                                                                          for the subject up to the start of
                     Treatment                                                                       the adverse event
                     Dose
ADAE        DOSEU    Treatment         text       mg                               EX.EXDOSEU
                     Dose Units
ADAE        DOSCUMG1 Cumulative        text       1st Quartile,                                      Missing if DOSCUMA=0, else
                     Dose Group                   2nd Quartile,                                      DOSCUMG1 = 1st Quartile if
                     1                            3rd Quartile,                                      DOSCUMA is in the 1st quartile,
                                                  4th Quartile                                       2nd Quartile if in the 2nd quartile,
                                                                                                     3rd Quartile if in the 3rd quartile
                                                                                                     and 4th Quartile if in the 4th
                                                                                                     quartile.


6.3 Sample ADaM Data - Example 3
Key points to note in the example are:
     1.    Variable DOSCUMG1 is not a standard variable. It has been added for analysis purposes and uses the
           naming conventions from the ADaMIG.
     2.    This is a simple example to only illustrate the cumulative dose variables that can be added to ADAE. It
           does not include additional variables that would also be needed for analysis, such as a flag to indicate the
           first occurrence of PSN.
     3.    Rows 3 and 7 include 2 patients who had no dose of study drug at the time of PSN and would not be
           included in the table.
Table 6.3.1 Sample ADaM Data Showing Cumulative Dose Variables
Row       USUBJID      ITTFL   AEDECOD           AETOXGR          AETOXGRN    DOSCUMA        DOSEU      DOSCUMG1
1         101-002      Y       PARESTHESIA       3                3           247.06         mg         1st Quartile
2         101-003      Y       PARESTHESIA       2                2           674.02         mg         3rd Quartile
3         101-005      Y       PARESTHESIA       1                1           0              mg
4         101-006      Y       PARESTHESIA       2                2           900.00         mg         4th Quartile
5         101-008      Y       PARESTHESIA       4                4           493.30         mg         2nd Quartile
6         101-010      Y       PARESTHESIA       3                3           894.29         mg         4th Quartile
7         101-012      Y       PARESTHESIA       1                1           0              mg




© 2021 Clinical Data Interchange Standards Consortium, Inc. All rights reserved                                                  Page 37
2021-11-29

CDISC ADaM Structure for Occurrence Data (OCCDS) Implementation Guide (1.1 Final)




7 Example 4: Analysis of Treatment-emergent
  Adverse Events in a Cross-Over Interaction
  Study
This example is a phase 1, open-label, 3-period cross-over study. Subjects are treated for 7 days within each period,
with a 7-day wash-out between periods. In each period, subjects receive 1 of 3 treatments (A, B, or A + B combined)
in order of the sequence to which they are randomized. Treatment-emergent adverse events were defined as adverse
events that occurred or worsened from the start of the treatment period through 72 hours after the end of the
treatment period. Non-treatment emergent adverse events were those that occurred before the first treatment period
or more than 72 hours after the end of the treatment period until the start of the next treatment period. Post-treatment
emergent adverse events were those that occurred more than 72 hours after the last treatment period.

7.1 Analysis Display Example Layout - Example 4
Figure 7.1.1 Example of Adverse Event Summary for a Cross-over Studya
                  Summary of Treatment-emergent Adverse Events by System Organ Class and
                                   Preferred Term and Treatment Group
                                        Analysis Population: Safety




a
    The style of the display of the results of an analysis is determined by the producer. This example is intended to illustrate content, not appearance.




© 2021 Clinical Data Interchange Standards Consortium, Inc. All rights reserved                                                                     Page 38
2021-11-29

CDISC ADaM Structure for Occurrence Data (OCCDS) Implementation Guide (1.1 Final)




7.2 Sample ADaM Variable Metadata - Example 4
This example describes an adverse events ADaM dataset named ADAE. ADAE is not a required dataset name.
Table 7.2.1 Sample ADaM Variable Metadata for Selected Variables
Dataset Variable       Variable Label            Variable Codelist                     Controlled Terms Source       Derivation
Name    Name                                     Type


ADAE      USUBJID      Unique Subject            text                                                  AE.USUBJID
                       Identifier
ADAE      TRTA         Actual Treatment          text      Treatment A, Treatment B,                                 ADSL.TRT01A if in the first period, ADSL.TRT02A if in the
                                                           Treatment A+B                                             second period, or ADSL.TRT03A if in the third period
ADAE      TRTAN        Actual Treatment          integer   1, 2, 3                                                   Code TRTA to numeric
                                                                                                                     Treatment A = 1
                                                                                                                     Treatment B = 2
                                                                                                                     Treatment A+B = 3
ADAE      SAFFL    Safety Population Flag        text      Y, N                                        ADSL.SAFFL
ADAE      AEBODSYS Body System or Organ          text                                  MedDRA          AE.AEBODSYS
                   Class
ADAE      AEDECOD Dictionary-Derived Term        text                                  MedDRA          AE.AEDECOD
ADAE      ASTDTM   Analysis Start Datetime       integer                                                             Converting AE.AESTDTC from character ISO8601 format
                                                                                                                     to numeric date format, applying producer defined
                                                                                                                     imputation rules
ADAE      ASTDTF       Analysis Start Date       text      D, M, Y                                                   The level of imputation done for the start date (D if day
                       Imputation Flag                                                                               was imputed, M if month was imputed, Y if year was
                                                                                                                     imputed)
ADAE      ASTTMF       Analysis Start Time       text      M, H                                                      The level of imputation done for the start time (H if hour
                       Imputation Flag                                                                               was imputed, M if minutes were imputed)
ADAE      TRTEMFL      Treatment Emergent        text      Y                                                         If ADSL.TR01SDTM LE ASTDTM LE
                       Analysis Flag                                                                                 (ADSL.TR01EDTM+72 hours) or ADSL.TR02SDTM LE
                                                                                                                     ASTDTM LE (ADSL.TR02EDTM+72 hours) or
                                                                                                                     ADSL.TR03SDTM LE ASTDTM LE
                                                                                                                     (ADSL.TR03EDTM+72 hours) then TRTEMFL=Y
ADAE      TREM01FL     Treatment Emergent        text      Y                                                         Y if ADSL.TR01SDTM LE ASTDTM LE
                       Period 01 Flag                                                                                (ADSL.TR01EDTM+72 hours)
ADAE      TREM02FL     Treatment Emergent        text      Y                                                         Y if ADSL.TR02SDTM LE ASTDTM LE
                       Period 02 Flag                                                                                (ADSL.TR02EDTM+72 hours)
ADAE      TREM03FL     Treatment Emergent        text      Y                                                         Y if ADSL.TR03SDTM LE ASTDTM LE
                       Period 03 Flag                                                                                (ADSL.TR03EDTM+72 hours)
ADAE      PREFL        Pre-treatment Flag        text      Y                                                         If TRTEMFL ^="Y" and FUPFL^="Y" then PREFL="Y"
ADAE      FUPFL        Follow-up Flag            text      Y                                                         if ASTDTM GT (ADSL.TR03EDTM+72 hours) then
                                                                                                                     FUPFL="Y"
ADAE      ASTDY        Analysis Start Relative   integer                                                             Date portion of ASTDTM - date portion of
                       Day                                                                                           ADSL.TRT01SDTM + 1 day if date portion of ASTDTM is
                                                                                                                     on or after date portion of TRT01SDTM, else date portion
                                                                                                                     of ASTDTM - date portion of ADSL.TR01SDTM if date
                                                                                                                     portion of ASTDTM precedes date portion of TR01SDTM
ADAE      EPOCH        Epoch                     text      RUN-IN, FIRST TREATMENT,                    AE.EPOCH
                                                           FIRST WASHOUT, SECOND



© 2021 Clinical Data Interchange Standards Consortium, Inc. All rights reserved                                                                                         Page 39
2021-11-29

CDISC ADaM Structure for Occurrence Data (OCCDS) Implementation Guide (1.1 Final)


Dataset Variable       Variable Label          Variable Codelist                    Controlled Terms Source         Derivation
Name    Name                                   Type


                                                         TREATMENT, SECOND
                                                         WASHOUT, THIRD
                                                         TREATMENT, FOLLOW-UP
ADAE      APHASE       Phase                   text      RUN-IN, FIRST TREATMENT,                                   If ASTDTM < ADSL.TR01SDTM then APHASE="RUN-IN",
                                                         FIRST WASHOUT, SECOND                                      else ifADSL.TR01SDTM LE ASTDTM LE
                                                         TREATMENT, SECOND                                          (ADSL.TR01EDTM+72 hours) then APHASE ="FIRST
                                                         WASHOUT, THIRD                                             TREATMENT", else if (ADSL.TR01EDTM+72 hours) <
                                                         TREATMENT, FOLLOW-UP                                       ASTDTM< ADSL.TR02SDTM then APHASE="FIRST
                                                                                                                    WASHOUT", etc.
ADAE      APERIOD      Period                  integer   1, 2, 3                                                    If TR01SDTM LE ASTDTM LE (TR01EDTM+72 hours)
                                                                                                                    then APERIOD=1, else if TR02SDTM LE ASTDTM LE
                                                                                                                    (TR02EDTM+72 hours) then APERIOD=2, else if
                                                                                                                    TR03SDTM LE ASTDTM LE (TR03EDTM+72 hours) then
                                                                                                                    APERIOD=3
ADAE      APERIODC     Period (C)              text      PERIOD 01, PERIOD 02,                                      If APERIOD=1 then APERIODC="PERIOD 01", else if
                                                         PERIOD 03                                                  APERIOD=2 then APERIODC="PERIOD 02", else if
                                                                                                                    APERIOD=3 then APERIODC="PERIOD 03"
ADAE      TR01SDTM     Datetime of First       integer                                              ADSL.TR01SDTM
                       Exposure in Period 01
ADAE      TR01EDTM     Datetime of Last        integer                                              ADSL.TR01EDTM
                       Exposure in Period 01
ADAE      TR02SDTM     Datetime of First       integer                                              ADSL.TR02SDTM
                       Exposure in Period 02
ADAE      TR02EDTM     Datetime of Last        integer                                              ADSL.TR02EDTM
                       Exposure in Period 02
ADAE      TR03SDTM     Datetime of First       integer                                              ADSL.TR03SDTM
                       Exposure in Period 03
ADAE      TR03EDTM     Datetime of Last        integer                                              ADSL.TR03EDTM
                       Exposure in Period 03


7.3 Sample ADaM Data - Example 4
Table 7.3.1 illustrates the adverse events analysis dataset (ADAE) defined in Section 7.2, Sample ADaM Variable Metadata - Example 4.
Key points to note in the example are:
     1.   The SDTM variable EPOCH was kept for traceability and to illustrate the differences between this variable and APHASE and APERIOD.
     2.   Treatment start and end datetimes for each period were kept and used to calculate APERIOD, TRTEMFL, and TREMxxFL variables. Another option is
          to use ADSL variables relating to period start and end datetimes (APxxSDTM and APxxEDTM). However, this latter option would not work when
          defining different periods for efficacy and for safety.
     3.   The producer of the dataset chose to populate APERIOD as an analysis period where the wash-out and follow-up periods were not populated for
          APERIOD. The same applied for the record-level actual treatment variable (TRTA), which was left missing for records not associated with a treatment.
          However, this is left up to the producer.
     4.   Row 5 indicates an adverse event that occurred in the follow-up epoch, post-treatment emergent, and not related to any analysis period or treatment.

© 2021 Clinical Data Interchange Standards Consortium, Inc. All rights reserved                                                                             Page 40
2021-11-29

CDISC ADaM Structure for Occurrence Data (OCCDS) Implementation Guide (1.1 Final)



          5.        Row 8 indicates an adverse event that occurred in the follow-up epoch, but within the third treatment phase and analysis period and associated with treatment A + B.

Table 7.3.1 Sample ADaM Dataa
    Row   USUBJID    TRTA   TRTAN   SAFFL   AEBODSYS           AEDECOD        ASTDTM             ASTDTF   ASTTMF   TRTEMFL   TREM01FL   TREM02FL   TREM03FL   PREFL   FUPFL   ASTDY   EPOCH       APHASE      APERIOD   APERIODC    TR01SDTM           TR01EDTM           TR02SDTM           TR02EDTM           TR03SDTM           TR03EDTM
    1     101-001    A      1       Y       GASTROINTESTINAL   VOMITING       05MAY08:16:00:00            M        Y         Y                                                5       FIRST       FIRST       1         PERIOD 01   01MAY08:10:05:00   07MAY08:09:10:10   15MAY08:08:15:00   21MAY08:10:30:00   20MAY08:13:50:00   03JUN08:07:20:00
                                            DISORDERS                                                                                                                                 TREATMENT   TREATMENT
    2     101-001    B      2       Y       INFECTIONS AND     PHARYNGITIS    16MAY08:06:42:00                     Y                    Y                                     16      SECOND      SECOND      2         PERIOD 02   01MAY08:10:05:00   07MAY08:09:10:00   15MAY08:08:15:00   21MAY08:10:30:00   29MAY08:13:50:00   03JUN08:07:20:00
                                            INFESTATIONS                                                                                                                              TREATMENT   TREATMENT
    3     101-001    A+B    3       Y       NERVOUS SYSTEM     HEADACHE       01JUN08:15:30:00                     Y                               Y                          32      THIRD       THIRD       3         PERIOD 03   01MAY08:10:05:00   07MAY08:09:10:00   15MAY08:08:15:00   21MAY08:10:30:00   29MAY08:13:50:00   03JUN08:07:20:00
                                            DISORDERS                                                                                                                                 TREATMENT   TREATMENT
    4     101-001    A+B    3       Y       NERVOUS SYSTEM     CONSTIPATION   02JUN08:07:15:00                     Y                               Y                          33      THIRD       THIRD       3         PERIOD 03   01MAY08:10:05:00   07MAY08:09:10:00   15MAY08:08:15:00   21MAY08:10:30:00   29MAY08:13:50:00   03JUN08:07:20:00
                                            DISORDERS                                                                                                                                 TREATMENT   TREATMENT
    5     101-001                   Y       INFECTIONS AND     ORAL HERPES    07JUN08:08:00:00                                                                        Y       38      FOLLOW-UP   FOLLOW-UP                         01MAY08:10:05:00   07MAY08:09:10:00   15MAY08:08:15:00   21MAY08:10:30:00   29MAY08:13:50:00   03JUN08:07:20:00
                                            INFESTATIONS
    6     101-002                   Y       VASCULAR           HYPOTENSION    25MAY08:13:20:00                                                                Y               26      SECOND      SECOND                            30APR08:12:05:00   06MAY08:08:32:00   14MAY08:11:55:00   20MAY08:08:10:00   26MAY08:15:40:00   01JUN08:09:13:00
                                            DISORDERS                                                                                                                                 WASHOUT     WASHOUT
    7     101-002    A+B    3       Y       NERVOUS SYSTEM     HEADACHE       27MAY08:22:10:00                     Y                               Y                          28      THIRD       THIRD       3         PERIOD 03   30APR08:12:05:00   06MAY08:08:32:00   14MAY08:11:55:00   20MAY08:08:10:00   26MAY08:15:40:00   01JUN08:09:13:00
                                            DISORDERS                                                                                                                                 TREATMENT   TREATMENT
    8     101-002    A+B    3       Y       NERVOUS SYSTEM     HEADACHE       02JUN08:22:10:00                     Y                               Y                          34      FOLLOW-UP   THIRD       3         PERIOD 03   30APR08:12:05:00   06MAY08:08:32:00   14MAY08:11:55:00   20MAY08:08:10:00   26MAY08:15:40:00   01JUN08:09:13:00
                                            DISORDERS                                                                                                                                             TREATMENT
a
    Variables ending in DTM are numeric datetimes, here shown using SAS format datetime16. Other numeric datetime formats can be used, but care should be taken with newer formats which might not be understood by all statistical packages.




© 2021 Clinical Data Interchange Standards Consortium, Inc. All rights reserved                                                                                                                                                                                                                                                        Page 41
2021-11-29

CDISC ADaM Structure for Occurrence Data (OCCDS) Implementation Guide (1.1 Final)




8 Example 5: MedDRA Secondary Path
In MedDRA, a collected term can be mapped along more than 1 path, as shown in Figure 5.1.
Whenever more than 1 path is possible, there is always a primary coding path plus 1 or more secondary paths. When
a secondary path will be used for analysis, SDTMIG v3.3 allows for capture of both a primary and secondary system
organ class (SOC), as described in the CDISC Notes column for these variables:
     •    AEBODSYS: “Dictionary derived. Body system or organ class used by the sponsor from the coding
          dictionary (e.g., MedDRA). When using a multi-axial dictionary such as MedDRA, this should contain the
          SOC used for the sponsor’s analyses and summary tables which may not necessarily be the primary SOC.”
     •    AESOC: “Dictionary-derived text description of the primary System Organ Class. Will be the same as
          AEBODSYS if the primary SOC was used for analysis.”
As with other SDTM variables, these are typically copied from the SDTM to ADaM and used directly in the
occurrence analysis.
This section describes different ways to handle multiple coding paths and provides an example for how to create a
single analysis dataset with 2 different coding paths.
Typically, adverse event analysis includes only the primary coding path. However, some indications also perform
analysis on the secondary path. For example, in a study of brain cancer, a headache might need to be analyzed
according to a secondary path that attributes this to the cancer. This is why the SDTM has the option of including 2
different paths.
When a secondary path is used, often the analysis need is:
     •    One set of tables showing the primary path, such as in Section 4, Example 1: Analysis of Treatment-
          emergent Adverse Event, using the primary coding path for analysis.
     •    Another separate set of tables allowing for a secondary coding path to be chosen for analysis.
In addition, there may be an analysis need where both primary and secondary coding paths are summarized in the
same table. The remainder of this section describes this analysis dataset.

Figure 8.1 Possible MedDRA Coding Paths for Term "Dizziness"




© 2021 Clinical Data Interchange Standards Consortium, Inc. All rights reserved                               Page 42
2021-11-29

CDISC ADaM Structure for Occurrence Data (OCCDS) Implementation Guide (1.1 Final)



8.1 Analysis Display Example Layout - Example 5
The analysis need is to produce the following table:
Figure 8.1.1 Example Layout for Adverse Event Primary and Secondary Path Summarya




a
  The style of the display of the results of an analysis will be determined by the producer. The example is intended to
illustrate content not appearance.


8.2 Sample SDTM AE Data - Example 5
As described in the introduction to this section, the SDTM variables AEBODSYS and AESOC are both included in
SDTM AE data, and each represents a different coding path used for analysis. In Table 8.2.1, note that AEBODSYS
and AESOC are the same on some rows but different on others. When only a primary path is to be used, the values
of AEBODSYS and AESOC are the same. When a secondary path is to be used, AEBODSYS and AESOC are
different. For the purpose of this example, the adverse event "dizziness" was coded to different MedDRA coding
paths in different subjects based on further information available.
Table 8.2.1 Sample SDTM AE Data for Selected Variables
 Row      STUDYID     USUBJID       AESEQ       AEDECOD                     AEBODSYS                        AESTDTC       AESOC
 1        XYZ         XYZ-1-001     1           Autoimmune thyroiditis      Endocrine disorders             2008-05-13    Endocrine disorders
 2        XYZ         XYZ-1-001     2           Dizziness                   Cardiac disorders               2008-06-13    Nervous system disorders
 3        XYZ         XYZ-2-002     1           Dizziness                   Vascular disorders              2008-09-13    Nervous system disorders
 4        XYZ         XYZ-3-003     1           Thyroid atrophy             Endocrine disorders             2008-09-13    Endocrine disorders
 5        XYZ         XYZ-4-004     1           Dizziness                   Nervous system disorders        2008-09-09    Nervous system disorders


8.3 Sample ADaM Data - Example 5
In this example, a single analysis dataset ADAE, with SubClass ADVERSE EVENT was created with additional
rows added for each coding path to facilitate the analysis shown in Section 8.1, Analysis Display Example Layout -
Example 5.
Key points to note in the example are:
     1.     The analysis record flag variables can be used to differentiate between primary and secondary path records.
