ADaM Examples in Commonly Used Statistical Analysis Methods Version 1.0




            Analysis Data Model (ADaM)
        Examples in Commonly Used Statistical
                  Analysis Methods
                                                   Prepared by the
                        CDISC Analysis Data Model Team



                                                     Notes to Readers
 The examples in this document are based on Version 2.1 of the CDISC Analysis Data Model and Version 1.0 of the
                              CDISC Analysis Data Model Implementation Guide.




Revision History
Date               Version Summary of Changes
December 16, 2011 1.0 Final Final released version.
September 15, 2011 1.0 Draft Draft released for public comment.



Note: Please see Appendix B for Representations and Warranties; Limitations of Liability, and Disclaimers.




© 2011 Clinical Data Interchange Standards Consortium, Inc. All rights reserved                            Page 1
FINAL                                                                                               December, 2011

                                                    ADaM Examples in Commonly Used Statistical Analysis Methods Version 1.0


Contents
1        Introduction .......................................................................................................................................................... 4
    1.1           Purpose ....................................................................................................................................................... 4
    1.2           Common Statistical Analysis Methods ....................................................................................................... 4
    1.3           Points to Consider When Building Analysis Datasets ................................................................................ 5
    1.4           Conventions Used in this Document .......................................................................................................... 6
    1.5           Caveats and Disclaimers ............................................................................................................................. 7
2        Examples .............................................................................................................................................................. 8
    2.1           Example 1: Basic Analysis of Covariance (ANCOVA) ............................................................................. 8
         2.1.1        Analysis Data Metadata ......................................................................................................................... 8
         2.1.2        Analysis Dataset .................................................................................................................................. 12
         2.1.3        Analysis Results................................................................................................................................... 15
    2.2           Example 2: Categorical Analysis (Analysis Dataset From Example 1) ................................................... 18
         2.2.1        Analysis Results................................................................................................................................... 18
    2.3           Example 3: Repeated Measures Analysis (Analysis Dataset From Example 1) ...................................... 20
         2.3.1        Analysis Results................................................................................................................................... 20
    2.4           Example 4: Descriptive Statistics (Analysis Dataset From Example 1) .................................................. 22
         2.4.1        Analysis Results................................................................................................................................... 23
    2.5           Example 5: Logistic Regression Analysis ............................................................................................... 27
         2.5.1        Analysis Data Metadata ....................................................................................................................... 27
         2.5.2        Analysis Dataset .................................................................................................................................. 29
         2.5.3        Analysis Results................................................................................................................................... 31
    2.6           Example 6: Multivariate Analysis of Variance ........................................................................................ 34
         2.6.1        Analysis Data Metadata ....................................................................................................................... 35
         2.6.2        Analysis Dataset .................................................................................................................................. 38
         2.6.3        Analysis Results................................................................................................................................... 39
    2.7           Example 7: Repeated Measures Analysis of a Crossover Study .............................................................. 43
         2.7.1        Analysis Data Metadata ....................................................................................................................... 44
         2.7.2        Analysis Variable Metadata and Analysis Dataset – ADSL ................................................................. 45
         2.7.3        Analysis Variable Metadata and Analysis Dataset – BDS Datasets ..................................................... 50
         2.7.4        Analysis Results................................................................................................................................... 63
    2.8           Example 8: Categorical Analysis of Subjects Meeting Hy’s Law Criteria .............................................. 66
         2.8.1        Analysis Data Metadata ....................................................................................................................... 67
         2.8.2        Analysis Dataset .................................................................................................................................. 71
         2.8.3        Analysis Results................................................................................................................................... 73
Appendices .................................................................................................................................................................. 76


© 2011 Clinical Data Interchange Standards Consortium, Inc. All rights reserved                                                                                    Page 2
FINAL                                                                                                                                                       December, 2011

ADaM Examples in Commonly Used Statistical Analysis Methods Version 1.0


   Appendix A: Abbreviations and Acronyms............................................................................................................. 76
   Appendix B: Representations And Warranties; Limitations of Liability, And Disclaimers .................................... 77




© 2011 Clinical Data Interchange Standards Consortium, Inc. All rights reserved                                                             Page 3
FINAL                                                                                                                                December, 2011

                                            ADaM Examples in Commonly Used Statistical Analysis Methods Version 1.0




1 Introduction
1.1 Purpose
The objective of this document is to provide examples of the Analysis Data Model applied in statistical methods that
are commonly used. The Analysis Data Model subject-level analysis dataset (ADSL) and Basic Data Structure
(BDS) and the associated metadata are illustrated. Please refer to Version 2.1 of the Analysis Data Model (the
ADaM) and Version 1.0 of the Analysis Data Model Implementation Guide (ADaMIG) for required background
about the ADaM and the ADaM data structures.

1.2 Common Statistical Analysis Methods
The BDS described in the ADaM and the ADaMIG supports the majority of statistical analyses, it does not support
all statistical analyses.
Table 1.2.1 includes a list of statistical analysis methods that are commonly used and the examples provided within
the document that could support the analysis methods listed. The analysis methods listed are those referenced in the
ClinicalTrials.gov Results Database1. In addition to the methods listed below, producing descriptive statistics is
another illustrated approach (Example 4).

Table 1.2.1 Common Statistical Analysis Methods

          Analysis Method                                     Example(s) in document that support the analysis
Analysis of Covariance                      Example 1 (Basic ANCOVA)
(ANCOVA)
Analysis of Variance (ANOVA)                Example 3 (Repeated Measures ANOVA)
                                            Example 6 (Multivariate ANOVA)
Chi-squared                                 Example 2 (Categorical Analysis)
Chi-squared, Corrected                      Example 2 (Categorical Analysis)
Cochran-Mantel-Haenszel                     Example 2 (Categorical Analysis, the stratification factor would be an additional
Mantel Haenszel                             column in the BDS dataset)
                                            Example 8 (Categorical Analysis, using criteria)
Fisher’s Exact                              Example 2 (Categorical Analysis)
Kruskal-Wallis                              Example 1 (Basic ANCOVA)
Log Rank                                    Refer to The ADaM Basic Data Structure Applied to Time-to-Event Analyses
                                            (www.cdisc.org/adam)
McNemar                                     Example 8 (Categorical Analysis, using criteria) – if the values being compared
                                            are the baseline and a post-baseline assessment (BASEC and AVALC).

                                            If the values being compared are from two different records (e.g., one is not
                                            baseline), then a BDS dataset will not be analysis-ready, as a transpose of the
                                            data would be required. Refer to Table 2.6.3.2 for an illustration.
Mixed Models Analysis                       Example 3 (Repeated Measures ANOVA)
                                            Example 7 (Repeated Measures Analysis for a cross-over study)
Regression, Cox                             Refer to The ADaM Basic Data Structure Applied to Time-to-Event Analyses
                                            (www.cdisc.org/adam), specifically the Cox Regression example
Regression, Linear                          Example 3 (Repeated Measures ANOVA)
Regression, Logistic                        Example 5 (Logistic Regression Analysis)


1
    ClinicalTrials.gov "Basic Results" Data Element Definitions (DRAFT), September 2010, United States National Institutes of Health, viewed 25
        October 2010, <http://prsinfo.clinicaltrials.gov/results_definitions.html>.

© 2011 Clinical Data Interchange Standards Consortium, Inc. All rights reserved                                                      Page 4
FINAL                                                                                                                         December, 2011

ADaM Examples in Commonly Used Statistical Analysis Methods Version 1.0


Table 1.2.1 Common Statistical Analysis Methods

       Analysis Method                                 Example(s) in document that support the analysis
Sign Test                             Example 1 (Basic ANCOVA)
t-Test, 1-sided                       Example 1 (Basic ANCOVA)
t-Test, 2-sided                       Example 1 (Basic ANCOVA)
Wilcoxon (Mann-Whitney)               Example 1 (Basic ANCOVA)



1.3 Points to Consider When Building Analysis Datasets
In developing the examples illustrated in this document, some of the key ADaM concepts and principles applied are:
     Optimum number of analysis datasets: As stated in the ADaM, one goal in creating analysis datasets is to
     have the optimum number of analysis datasets needed to perform the various analyses. A single dataset can
     support multiple analyses. Examples 1, 2, 3, and 4 illustrate a single analysis dataset used to support multiple
     statistical analyses. It should also be noted that the same analysis dataset can be used to generate descriptive
     statistics as illustrated in Example 4.
     Ordering of variables: Within this document, no specific ordering of variables within the illustrated datasets is
     applied. The ADaM states that ideally the ordering of the variables in the analysis dataset follows a logical
     ordering (not simply alphabetic). Version 2.1 of the ADaM does not provide a specific recommendation for the
     ordering of the variables. Within this document, the author of each example applied their own logical ordering.
     Though there is not an across-example consistency of ordering of variables, within an example the ordering of
     the variables within the illustrated analysis dataset matches the order of the variables as presented in the
     associated metadata.
     Identification of source dataset: When identifying the source dataset for a variable, the immediate
     predecessor is used, as described in the ADaM. For example, in ADSL the source is identified as DM.AGE in
     the analysis variable metadata. When AGE is used in other analysis datasets, the source is identified as
     ADSL.AGE.
     Parameter value-level metadata: Throughout this document parameter value-level metadata are included for
     BDS analysis datasets, as required in variable-level metadata for a BDS analysis dataset (as defined in the
     ADaM). ADSL analysis variable metadata do not include parameter value-level metadata, as ADSL is a single
     record per subject structure.
     Display format metadata element: It should be noted that the use of display format, as applied to all tables of
     Analysis Variable Metadata within this document, is intended to display the format that the metadata row is
     planned to be viewed as for the purpose of a display such as a statistical table and not always as the attributed
     format contained in the analysis dataset used. A good example of this is contained in Table 2.8.1.2 regarding
     AVAL. It should be noted that sometimes there is a need to have different metadata within certain variables and
     the display format does not have to be consistent across these metadata.
      Analysis-ready: The analysis dataset should be “analysis-ready,” meaning it should contain all of the
      variables needed for the specific analysis, so that the analysis can be replicated by performing the actual
      statistical test without first having to manipulate data. In addition to required variables such as subject
      identifiers and treatment variables, the critical variables included in the analysis dataset will depend on the
      specific nature of the disease or indication, the analyses planned in the protocol, and the Statistical Analysis
      Plan (SAP), and may include:
            baseline values,
            stratification or grouping variables,
            selection flags (e.g., population flag),
            predictor variables (also known as explanatory variables, independent variables, or covariates),

© 2011 Clinical Data Interchange Standards Consortium, Inc. All rights reserved                                   Page 5
FINAL                                                                                                      December, 2011

                                      ADaM Examples in Commonly Used Statistical Analysis Methods Version 1.0


            response variables (also known as dependent variables),
            supportive variables for complex predictors and/or responses,
            supportive variables to facilitate traceability.
Refer to the ADaMIG for descriptions of issues to be considered in designing and constructing analysis datasets and
the associated metadata. Examples of a few of these issues include (but are not limited to):
            identification of baseline,
            facilitating subgroup analyses,
            inclusion of transformed analysis values,
            deriving composite/compound parameters,
            identifying imputation of missing values,
            deriving a new variable (column) vs. a new record, and
            inclusion of additional records and/or variables for sensitivity analyses and/or future analyses.

1.4 Conventions Used in this Document
Throughout this document the terms “producer” and “consumer” are used to refer to the
originator/sender/owner/sponsor of the data and the user/reviewer/recipient of the data, respectively. These terms
are used to simplify the document, and are not intended to imply that these examples only apply to analysis datasets
in the context of electronic submissions to regulatory agencies.
There are many decisions to be made by a producer in order to have consistency among the ADaM datasets and
associated metadata being developed. Some of the decisions made in developing the examples within this document
are highlighted below to provide insight into conventions used in the document, as well as to emphasize some of the
decisions to be made by a producer.
     Parameter identifier: For simplicity, in many examples in this document only one analysis parameter is
     illustrated. In the analysis variable metadata provided in the examples, the producer elected to use the value of
     PARAMCD as the parameter identifier for variables that have metadata dependent on the analysis parameter.
     For variables expected to be consistent across analysis parameters, the parameter identifier of “*ALL*” is used.
     Whether to make this distinction within analysis variable metadata for an analysis dataset containing only one
     analysis parameter is a decision to be made by the producer.
     Codelists/Controlled Terminology in the metadata: All of the examples illustrated in this document repeat
     the codelist metadata from the source dataset or list the valid values for the variable. It should be noted that
     how repeated codelists are included is a decision to be made by the producer of the data and is impacted by the
     choice of stylesheet. For example, the producer may elect to have a separate section of the define file be
     devoted to codelists, with the analysis variable metadata element providing a link to the appropriate codelist
     (thus avoiding repeating the list for each analysis variable to which it applies). Similarly, if the list of valid
     values is long, the producer may choose to provide a link to an external codelist, such as a CDISC terminology
     set.
     Result identifier: The “result identifier” in the analysis results metadata identifies the specific analysis result
     within a display. As illustrated in Table 2.2.1.2 in this document and in the ADaM, the “result identifier” can be
     left blank, indicating that the results being described are in the analysis display identified, not one specific
     portion of the display. To emphasize that the element is intentionally left blank, this document uses a
     convention of noting “<intentionally left blank>.” This is not meant to imply a requirement or standard for
     using this convention.
     Programming statements can be omitted: As illustrated in the ADaM, the “programming statements” in the
     analysis results metadata can be blank, if the information provided in the other metadata elements is sufficient
     to describe the analysis performed. This is illustrated in Example 1 (Section 2.1) where the programming

© 2011 Clinical Data Interchange Standards Consortium, Inc. All rights reserved                                  Page 6
FINAL                                                                                                     December, 2011

ADaM Examples in Commonly Used Statistical Analysis Methods Version 1.0


     statements are provided, and in Example 2 (Section 2.2) where the programming statements element is left
     blank. To emphasize that the element is intentionally left blank, this document uses a convention of noting
     “<intentionally left blank>.” This is not meant to imply a requirement or standard for using this convention.
     Selection clause in the programming statements: Within this document, the selection criteria to be used for
     the analysis is (in general) not specifically identified in the programming statements for results metadata. This
     is not meant to imply that this approach should be used in metadata; it is only to simplify the examples in the
     document.
     Identification of software: As stated in the ADaM regarding the programming statements provided in the
     analysis results metadata, the name and version of the applicable software package should be specified either as
     part of the metadata or in another document, such as a Reviewer’s Guide. Within this document, the
     information is not provided within the programming statements metadata element.
     Hyperlinks: Throughout this document, hyperlinks are denoted by underlined text. It should be noted that
     multiple hyperlinks are indicated in the examples in this document. The ability to include these links will be
     driven by the software and/or stylesheet that the producer uses for submissions.
     Hypothetical source domains: The purpose of the examples in this document is to demonstrate analysis
     datasets and metadata for common analysis situations. To avoid clouding the issue with debates about the
     appropriate Study Data Tabulation Model (SDTM) domains to use as source for the analysis datasets,
     hypothetical SDTM domains are indicated with “XX” for all non-standard source/derivation algorithms. This is
     not meant to imply that this approach should be used in metadata; it is only to simplify the examples in the
     document.

1.5 Caveats and Disclaimers
      Examples are for illustration only: Note that the examples in this document are only intended as illustrations
      and should not be viewed as a statement of the standards themselves. In addition, the examples are intended to
      illustrate content and not appearance; it is understood that there are many different ways that data can be
      displayed. This document does not cover display formats.
      Display of metadata for illustration of content only: Though the metadata elements have been defined in
      the ADaM, how the metadata are displayed is a function of the mechanism used to display the content. The
      presentation formats used in this document are for the purposes of illustration of content only, and are not
      intended to imply any type of display standard or requirement.
     Examples not meant to be all inclusive regarding variables: The examples describe some of the key
     variables and records that would be included in the dataset. It is not intended to illustrate every possible
     variable that might be included in the analysis dataset; for example certain variables that are helpful for
     traceability such as SRCDOM, SRCVAR, and SRCSEQ are not included in the illustrations.
     Source/Derivation Column: The algorithms provided in the Source/Derivation column are for illustration
     purposes only and are not intended to imply universally accepted definitions or derivations of variables.
     Algorithms are producer defined and dependent on trial and analysis design.
     No endorsement of vendors or products: In an effort to provide illustrations of the ADaM concepts,
     examples are provided that refer to specific programming languages. As with other ADaM documents,
     references to specific vendor products are examples only and therefore should not be interpreted as an
     endorsement of these vendors or products.




© 2011 Clinical Data Interchange Standards Consortium, Inc. All rights reserved                                  Page 7
FINAL                                                                                                     December, 2011

                                                                                                      ADaM Examples in Commonly Used Statistical Analysis Methods Version 1.0




2 Examples
2.1 Example 1: Basic Analysis of Covariance (ANCOVA)
This example illustrates an analysis dataset that supports a simple analysis of variance including covariates. Included in this illustration are identification of
baseline values, change from baseline analysis, and handling of missing data.
The study measured lumbar spine bone mineral density (BMD) at baseline and then every 6 months for 3 years, with the goal of assessing the difference in effect
between two treatments – Drug ABC and Placebo. Factors (i.e., machine type and subject’s bone mineral density at baseline) that may influence the response are
included in the model and the dataset. The response variable is the percent change from baseline in bone mineral density, with an increasing BMD indicating a
positive effect. The source datasets (immediate predecessors) for the analysis dataset in this example are assumed to be ADSL and an SDTM domain containing
the bone measurements, represented as “XX” in the example. Missing data are imputed using last observation carried forward (LOCF).


2.1.1 Analysis Data Metadata
Table 2.1.1.1 Analysis Dataset Metadata for ANCOVA Example 2
 Dataset         Dataset Description      Dataset Location       Dataset Structure                                           Key Variables of         Class of                  Documentation
  Name                                                                                                                           Dataset              Dataset
ADBMD       Lumbar spine bone mineral    adbmd.xpt         One record per subject per                                       STUDYID,                 BDS              dsadbmd.sas
            density analysis data                          parameter per analysis visit                                     USUBJID,
                                                                                                                            PARAMCD, AVISIT


In the metadata illustrated in Table 2.1.1.2 and as mentioned in Section 1.4, the producer elected to use the value of PARAMCD as the parameter identifier for
variables that have metadata dependent on the analysis parameter. For variables expected to be consistent across analysis parameters, the parameter identifier of
“*ALL*” is used. Whether to make this distinction within analysis variable metadata for an analysis dataset containing only one analysis parameter is a decision
to be made by the producer.




2
    The presentation formats used in this document for metadata are for the purposes of illustration of content only, and are not intended to imply any type of display standard or requirement..

© 2011 Clinical Data Interchange Standards Consortium, Inc. All rights reserved                                                                                                                 Page 8
FINAL                                                                                                                                                                                   December, 2011

ADaM Examples in Commonly Used Statistical Analysis Methods Version 1.0


Table 2.1.1.2 Analysis Variable Metadata for ANCOVA Example3
  Dataset      Parameter      Variable                  Variable   Display                                        Codelist /
                                        Variable Label                                                                                                        Source / Derivation
   Name         Identifier     Name                       Type      Format                                     Controlled Terms
ADBMD         *ALL*        USUBJID      Unique         text      $20                                                                    ADSL.USUBJID
                                        Subject
                                        Identifier
ADBMD         *ALL*        PARAM        Parameter      text      $32                                         DXA BMD at Lumbar Populated with ”DXA BMD at Lumbar Spine (g/cm^2)” for
                                                                                                             Spine (g/cm^2)    records corresponding to Lumbar Spine Bone Mineral
                                                                                                                               Density (based on XX.XXTEST and XX.XXSTRESU when
                                                                                                                               XX.XXTESTCD=”BMDLS”)
ADBMD               PARAMCD          PARAMCD             Parameter           text          $8                                  Populated with ”BMDLS” for records corresponding to
                                                         Code                                                BMDLS             Lumbar Spine Bone Mineral Density (based on
                                                                                                                               XX.XXTESTCD)
ADBMD               *ALL*            AVISIT              Analysis Visit      text          $11               BASELINE,         Refer to Section X.X of the SAP for a detailed description
                                                                                                             MONTH 6,          of the windowing and imputation algorithms used to
                                                                                                             MONTH 12,         determine the analysis visit based on ADBMD.ADY
                                                                                                             MONTH 18,
                                                                                                             MONTH 24,
                                                                                                             MONTH 30,
                                                                                                             MONTH 36,
ADBMD               *ALL*            AVISITN             Analysis Visit      integer       3.0               2 = BASELINE,     Derived based on ADBMD.AVISIT
                                                         (N)                                                 3 = MONTH 6,
                                                                                                             4 = MONTH 12,
                                                                                                             5 = MONTH 18,
                                                                                                             6 = MONTH 24,
                                                                                                             7 = MONTH 30,
                                                                                                             8 = MONTH 36
ADBMD               *ALL*            STUDYID             Study Identifier text             $12                                 ADSL.STUDYID
ADBMD               *ALL*            TRTP                Planned             text          $15               Drug ABC,                  ADSL.TRT01P
                                                         Treatment                                           Placebo
ADBMD               *ALL*            SEX                 Sex                 text          $1                M, F                       ADSL.SEX
ADBMD               *ALL*            AGE                 Age                 integer       3.0                                          ADSL.AGE




3
    The presentation formats used in this document for metadata are for the purposes of illustration of content only, and are not intended to imply any type of display standard or requirement.

© 2011 Clinical Data Interchange Standards Consortium, Inc. All rights reserved                                                                                                                Page 9
FINAL                                                                                                                                                                                  December, 2011

                                                                                    ADaM Examples in Commonly Used Statistical Analysis Methods Version 1.0


Table 2.1.1.2 Analysis Variable Metadata for ANCOVA Example3
  Dataset      Parameter      Variable                  Variable   Display                   Codelist /
                                        Variable Label                                                                          Source / Derivation
   Name         Identifier     Name                       Type      Format               Controlled Terms
ADBMD         *ALL*        RACE         Race           text      $50                    BLACK OR            ADSL.RACE
                                                                                        AFRICAN
                                                                                        AMERICAN,
                                                                                        AMERICAN INDIAN
                                                                                        OR ALASKA
                                                                                        NATIVE,
                                                                                        ASIAN,
                                                                                        NATIVE HAWAIIAN
                                                                                        OR OTHER
                                                                                        PACIFIC
                                                                                        ISLANDER,
                                                                                        WHITE
ADBMD          *ALL*           ITTFL            Intent-To-Treat text          $1        Y, N                ADSL.ITTFL
                                                Population
                                                Flag
ADBMD          BMDLS           AVAL             Analysis Value float          8.1                           AVAL = XX.XXSTRESN or an imputed value
                                                                                                            if XX.XXSTRESN is missing, apply the LOCF algorithm, i.e.
                                                                                                            set AVAL equal to the value for the previous post-baseline
                                                                                                            time point (AVISIT). If the previous timepoint is baseline,
                                                                                                            leave AVAL missing
ADBMD          BMDLS           BASE             Baseline Value float          8.1                           BASE=ADBMD.AVAL where ADBMD.ABLFL=“Y”
ADBMD          *ALL*           CHG              Change from       float       8.1                           CHG=ADBMD.AVAL - ADBMD.BASE for post-baseline
                                                Baseline                                                    visits
ADBMD          *ALL*           PCHG             Percent           float       8.2                           PCHG=((ADBMD.AVAL -
                                                Change from                                                 ADBMD.BASE)/ADBMD.BASE)*100 for post-baseline visits
                                                Baseline
ADBMD          BMDLS           CRIT1            Analysis          text        $50       >3% change from     Populated with ”>3% change from baseline” when
                                                Criterion 1                             baseline            ADBMD.PARAMCD = “BMDLS” and ADBMD.PCHG>3
ADBMD          BMDLS           CRIT1FL          Criterion 1       text        $1        Y
                                                Evaluation                                                  Set to “Y” when ADBMD.CRIT1 is populated
                                                Result Flag
ADBMD          BMDLS           ABLFL            Baseline          text        $1        Y                   Set to “Y” when the record is the last record prior to first
                                                Record Flag                                                 dose of study medication (ADBMD.ADT ≤
                                                                                                            ADBMD.TRTSDT)


© 2011 Clinical Data Interchange Standards Consortium, Inc. All rights reserved                                                                                  Page 10
FINAL                                                                                                                                                    December, 2011

ADaM Examples in Commonly Used Statistical Analysis Methods Version 1.0


Table 2.1.1.2 Analysis Variable Metadata for ANCOVA Example3
  Dataset      Parameter      Variable                  Variable    Display                   Codelist /
                                        Variable Label                                                                          Source / Derivation
   Name        Identifier      Name                       Type      Format                 Controlled Terms
ADBMD         BMDLS        DTYPE        Derivation     text      $4                       LOCF                Populated with “LOCF” if XX.XXSTRESN is missing, to
                                        Type                                                                  indicate that on that record ADBMD.AVAL is populated
                                                                                                              using Last Observation Carried Forward method

ADBMD          BMDLS           BMMCHTYP         Machine Type      text        $7          HOLOGIC, LUNAR      XX.XXMETHOD=“BMMCHTYP”
ADBMD          *ALL*           TRTSDT           Date of First     integer     yymmdd10.                       ADSL.TRTSDT
                                                Exposure to
                                                Treatment
ADBMD          *ALL*           ADT              Analysis Date     integer     yymmdd10.                       Convert date portion of XX.XXDTC from character to a
                                                                                                              numeric date variable and format using yymmdd10. date
                                                                                                              format
ADBMD          *ALL*           ADY              Analysis          integer     3.0                             If ADBMD.TRTSDT less than or equal to ADBMD.ADT then
                                                Relative Day                                                  ADY=ADBMD.ADT – ADBMD.TRTSDT+1
                                                                                                              Else ADY=ADBMD.ADT - ADBMD.TRTSDT
ADBMD          BMDLS           XXSEQ            Sequence          integer     4.0                             XX.XXSEQ from the record in the SDTM XX domain
                                                Number                                                        containing AVAL. If AVAL is imputed, the sequence number
                                                                                                              is carried forward along with AVAL.
ADBMD          BMDLS           AWTARGET         Analysis      integer         4.0                             If ADBMD.AVISIT=”BASELINE” then
                                                Window Target                                                 ADBMD.AWTARGET=1
                                                                                                              Else if ADBMD.AVISIT=”MONTH 6” then
                                                                                                              ADBMD.AWTARGET=183
                                                                                                              Else if ADBMD.AVISIT=“MONTH 12” then
                                                                                                              ADBMD.AWTARGET=365
                                                                                                              Else if ADBMD.AVISIT=“MONTH 18” then
                                                                                                              ADBMD.AWTARGET=548
                                                                                                              Else if ADBMD.AVISIT=“MONTH 24” then
                                                                                                              ADBMD.AWTARGET=730
                                                                                                              Else if ADBMD.AVISIT=“MONTH 30” then
                                                                                                              ADBMD.AWTARGET=913
                                                                                                              Else if ADBMD.AVISIT=“MONTH 36” then
                                                                                                              ADBMD.AWTARGET=1095
ADBMD          BMDLS           AWTDIFF          Analysis          integer     4.0                             The absolute value of the difference between ADBMD.ADY
                                                Window Diff                                                   and ADBMD.AWTARGET
                                                from Target


© 2011 Clinical Data Interchange Standards Consortium, Inc. All rights reserved                                                                               Page 11
FINAL                                                                                                                                                 December, 2011

                                                                                  ADaM Examples in Commonly Used Statistical Analysis Methods Version 1.0


Table 2.1.1.2 Analysis Variable Metadata for ANCOVA Example3
  Dataset      Parameter      Variable                  Variable    Display                Codelist /
                                        Variable Label                                                                           Source / Derivation
   Name        Identifier      Name                       Type      Format              Controlled Terms
ADBMD         BMDLS        ANL01FL      Analysis       text      $1                    Y                     Populate with “Y” to identify the record selected to be
                                        Record Flag                                                          analyzed for the specific value of AVISIT (already
                                        01                                                                   populated based on the analysis window algorithm defined
                                                                                                             in SAP X.X) within the specified subject when
                                                                                                             ADBMD.PARAMCD=”BMDLS”.
                                                                                                             If there are multiple records for the same subject within the
                                                                                                             parameter that have the same value of AVISIT, use the
                                                                                                             record that is closest to ADBMD.AWTARGET. If there are
                                                                                                             multiple records that are also the same distance from the
                                                                                                             target, then use the record with the “worst” result (smallest
                                                                                                             percent change).
                                                                                                             Sort by unique subject identifier (ADBMD.USUBJID),
                                                                                                             parameter (ADBMD.PARAMCD), analysis visit
                                                                                                             (ADBMD.AVISITN), difference from target
                                                                                                             (ADBMD.AWTDIFF), and value of percent change
                                                                                                             (ADBMD.PCHG) and set ANL01FL=”Y” for the first result



2.1.2 Analysis Dataset
Table 2.1.2.1 is an illustration of the lumbar spine bone mineral density analysis dataset (ADBMD) defined above. The ADBMD dataset illustrated in this
example is designed to support multiple analyses, i.e., the ANCOVA, Fisher’s Exact, and Repeated Measures analyses in examples 1, 2, and 3, respectively. The
example describes some of the key variables and records that would be included in the dataset.
Key points to note in the example are:
CRITy variables: In this example, the presence of the text string in CRIT1 indicates that the specified criterion is satisfied on this record, while a null value
               indicates that the criterion is not satisfied. CRIT1FL=”Y” when CRIT1 is populated, and is null otherwise.
SEQ variable:       In this example, the sequence number from the corresponding SDTM domain record is included in the analysis dataset to provide traceability.
ANL01FL:            Identifies records that are to be analyzed within each value of AVISIT (e.g., AVISIT=”MONTH 24”), applying a selection algorithm if the
                    subject has multiple records with the same AVISIT value.
Rows 5 and 6:       Subject 101-001 has two records (Rows 5 and 6) for AVISIT= “MONTH 24”. As specified in the SAP and described in the analysis variable
                    metadata, for multiple records at MONTH 24, the record closest to Day 730 is selected and the ANL01FL is populated with “Y”. The
                    observations for Rows 5 and 6 occurred on ADY 700 and 740, respectively. Since the observation on row 6 is the closest to Day 730, it is


© 2011 Clinical Data Interchange Standards Consortium, Inc. All rights reserved                                                                                 Page 12
FINAL                                                                                                                                                   December, 2011

ADaM Examples in Commonly Used Statistical Analysis Methods Version 1.0


                    selected and the ANL01FL is populated. Both records are retained in the dataset for traceability ( i.e., to provide the data to be carried forward
                    for imputation) and to allow for additional analyses.
Row 7:              The measurement at “MONTH 30” is missing; therefore the record is imputed using LOCF method. Note that the XXSEQ value is also carried
                    forward.
Rows 8-9:           Subject 101-001 has two records (Rows 8 and 9) with AVISIT=”MONTH 36”. Both records are equidistant from the target of Day 1095, i.e.
                    AWTDIFF=2 for both records. The ANL01FL=“Y” in Row 8 since this record has the smallest value of PCHG. Both records are retained in
                    the dataset for traceability and to allow for additional analyses.
Rows 1, 10:         CRIT1 and CRIT1FL are not populated on these rows because the criterion cannot be evaluated (i.e., PCHG is null on these baseline records).
Rows 8, 11:         CRIT1 and CRIT1FL are not populated on these rows because PCHG is not greater than 3.
Rows 14-16:         The measurements at MONTHS 24, 30 and 36 are missing; therefore the records are imputed using the LOCF method.




© 2011 Clinical Data Interchange Standards Consortium, Inc. All rights reserved                                                                             Page 13
FINAL                                                                                                                                               December, 2011

                                                                                       ADaM Examples in Commonly Used Statistical Analysis Methods Version 1.0


Table 2.1.2.1 Illustration of Analysis Dataset ADBMD
Row   USUBJID    PARAM                              PARAMCD      AVISIT      AVISITN   STUDYID   TRTP       SEX   AGE   RACE    ITTFL   AVAL    BASE    CHG       PCHG
1     101-001    DXA BMD at Lumbar Spine (g/cm^2)   BMDLS        BASELINE    2         XXX001    Drug ABC   F     39    WHITE   Y       0.992   0.992
2     101-001    DXA BMD at Lumbar Spine (g/cm^2)   BMDLS        MONTH 6     3         XXX001    Drug ABC   F     39    WHITE   Y       1.025   0.992   0.033     3.33
3     101-001    DXA BMD at Lumbar Spine (g/cm^2)   BMDLS        MONTH 12    4         XXX001    Drug ABC   F     39    WHITE   Y       1.033   0.992   0.041     4.13
4     101-001    DXA BMD at Lumbar Spine (g/cm^2)   BMDLS        MONTH 18    5         XXX001    Drug ABC   F     39    WHITE   Y       1.025   0.992   0.033     3.33
5     101-001    DXA BMD at Lumbar Spine (g/cm^2)   BMDLS        MONTH 24    6         XXX001    Drug ABC   F     39    WHITE   Y       1.060   0.992   0.068     6.85
6     101-001    DXA BMD at Lumbar Spine (g/cm^2)   BMDLS        MONTH 24    6         XXX001    Drug ABC   F     39    WHITE   Y       1.072   0.992   0.080     8.06
7     101-001    DXA BMD at Lumbar Spine (g/cm^2)   BMDLS        MONTH 30    7         XXX001    Drug ABC   F     39    WHITE   Y       1.072   0.992   0.080     8.06
8     101-001    DXA BMD at Lumbar Spine (g/cm^2)   BMDLS        MONTH 36    8         XXX001    Drug ABC   F     39    WHITE   Y       1.021   0.992   0.029     2.92
9     101-001    DXA BMD at Lumbar Spine (g/cm^2)   BMDLS        MONTH 36    8         XXX001    Drug ABC   F     39    WHITE   Y       1.086   0.992   0.094     9.48
10    101-002    DXA BMD at Lumbar Spine (g/cm^2)   BMDLS        BASELINE    2         XXX001    Placebo    M     45    ASIAN   Y       0.795   0.795
11    101-002    DXA BMD at Lumbar Spine (g/cm^2)   BMDLS        MONTH 6     3         XXX001    Placebo    M     45    ASIAN   Y       0.780   0.795   -0.015    -1.89
12    101-002    DXA BMD at Lumbar Spine (g/cm^2)   BMDLS        MONTH 12    4         XXX001    Placebo    M     45    ASIAN   Y       0.834   0.795   0.039     4.91
13    101-002    DXA BMD at Lumbar Spine (g/cm^2)   BMDLS        MONTH 18    5         XXX001    Placebo    M     45    ASIAN   Y       0.838   0.795   0.043     5.41
14    101-002    DXA BMD at Lumbar Spine (g/cm^2)   BMDLS        MONTH 24    6         XXX001    Placebo    M     45    ASIAN   Y       0.838   0.795   0.043     5.41
15    101-002    DXA BMD at Lumbar Spine (g/cm^2)   BMDLS        MONTH 30    7         XXX001    Placebo    M     45    ASIAN   Y       0.838   0.795   0.043     5.41
16    101-002    DXA BMD at Lumbar Spine (g/cm^2)   BMDLS        MONTH 36    8         XXX001    Placebo    M     45    ASIAN   Y       0.838   0.795   0.043     5.41




© 2011 Clinical Data Interchange Standards Consortium, Inc. All rights reserved                                                                                          Page 14
FINAL                                                                                                                                                            December, 2011

ADaM Examples in Commonly Used Statistical Analysis Methods Version 1.0


Table 2.1.2.1 Illustration of Analysis Dataset ADBMD
(Continued)
Row CRIT1                        CRIT1FL ABLFL DTYPE BMMCHTYP             TRTSDT       ADT          ADY    XXSEQ   AWTARGET   AWTDIFF   ANL01FL
1                                        Y           HOLOGIC              2007-01-02   2007-01-02   1      102     1          0         Y
2     >3% change from baseline   Y                   HOLOGIC              2007-01-02   2007-06-13   163    103     183        20        Y
3     >3% change from baseline   Y                   HOLOGIC              2007-01-02   2007-12-31   364    104     365        1         Y
4     >3% change from baseline   Y                   HOLOGIC              2007-01-02   2008-06-06   522    105     548        26        Y
5     >3% change from baseline   Y                   HOLOGIC              2007-01-02   2008-12-01   700    106     730        30
6     >3% change from baseline   Y                   HOLOGIC              2007-01-02   2009-01-10   740    107     730        10        Y
7     >3% change from baseline   Y             LOCF HOLOGIC               2007-01-02   2009-01-10   740    107     913        173       Y
8                                                    HOLOGIC              2007-01-02   2009-12-29   1093   108     1095       2         Y
9     >3% change from baseline   Y                   HOLOGIC              2007-01-02   2010-01-02   1097   109     1095       2
10                                       Y           LUNAR                2007-01-15   2007-01-15   1      202     1          0         Y
11                                                   LUNAR                2007-01-15   2007-06-13   150    203     183        33        Y
12    >3% change from baseline   Y                   LUNAR                2007-01-15   2008-01-28   379    204     365        14        Y
13    >3% change from baseline   Y                   LUNAR                2007-01-15   2008-06-19   522    205     548        26        Y
14    >3% change from baseline   Y             LOCF LUNAR                 2007-01-15   2008-06-19   522    205     730        208       Y
15    >3% change from baseline   Y             LOCF LUNAR                 2007-01-15   2008-06-19   522    205     913        391       Y
16    >3% change from baseline   Y             LOCF LUNAR                 2007-01-15   2008-06-19   522    205     1095       573       Y


2.1.3 Analysis Results
The following data display illustrates an ANCOVA analysis performed using ADBMD as described above.
As described in the protocol and the SAP, the primary efficacy analysis endpoint is the percent change from baseline at Month 24 in the Bone Mineral Density
(BMD) at the Lumbar Spine. The analysis is conducted using the Intent-to-Treat (ITT) population, with LOCF imputation for any missing values at Month 24.
As the primary efficacy analysis method, an ANCOVA model is used, with planned treatment (as a categorical variable), baseline BMD value, machine type, and
baseline BMD value by machine type interaction included as independent variables, and the percent change from baseline as the dependent variable. The
adjusted least squares (LS) means and 95% confidence interval are presented.




© 2011 Clinical Data Interchange Standards Consortium, Inc. All rights reserved                                                                           Page 15
FINAL                                                                                                                                             December, 2011

                                                                                                       ADaM Examples in Commonly Used Statistical Analysis Methods Version 1.0


Table 2.1.3.1 Illustration of Analysis Display Layout for ANCOVA Example 4
                                                        Summary E.1
                     Lumbar Spine Bone Mineral Density Percent Change From Baseline at Month 24
                                       (ITT Population, LOCF Data, ANCOVA Model)
                                         % Change From Baseline       Treatment Difference (Drug ABC – Placebo)
                               n        LS Meana        95% CIa      LS Meana          95% CIa        p-valuea
     Drug ABC (N = xxx) xxx                x.x         (x.x, x.x)
     Placebo (N = xxx)        xxx          x.x         (x.x, x.x)       x.x           (x.x, x.x)       x.xxxx

                                                                                                                                                 Page 1 of 1
         N = ITT population, n = number of subjects with non-missing percent change from baseline at month 24
         CI = Confidence interval
         LS = Least squares
         a
           Based on ANCOVA model adjusting for planned treatment, baseline BMD value, machine type, and baseline BMD
         value by machine type interaction.




4
    The style of the display of the results of an analysis will be determined by the producer. The example is intended to illustrate content not appearance.

© 2011 Clinical Data Interchange Standards Consortium, Inc. All rights reserved                                                                                        Page 16
FINAL                                                                                                                                                          December, 2011

ADaM Examples in Commonly Used Statistical Analysis Methods Version 1.0


Table 2.1.3.2 Analysis Results Metadata for ANCOVA Example 5
     Metadata Field                                                                           Metadata
DISPLAY IDENTIFIER        Summary E.1
DISPLAY NAME              Lumbar Spine Bone Mineral Density Percent Change From Baseline at Month 24 (ITT Population, LOCF Data, ANCOVA Model)
RESULT IDENTIFIER         Treatment difference results (LSMean, confidence interval, p-value)
PARAM                     DXA BMD at Lumbar Spine (g/cm^2)
PARAMCD                   BMDLS
ANALYSIS VARIABLE         PCHG
REASON                    Primary efficacy analysis as pre-specified in protocol
DATASET                   ADBMD
SELECTION CRITERIA        ITTFL=“Y” and PARAM=“DXA BMD at Lumbar Spine (g/cm^2)” and AVISIT=“MONTH 24” and ANL01FL=“Y”
DOCUMENTATION             See SAP Section XX for details. Program: t-bmd-pchg-ancova.sas
                          LS means and 95% CIs are based on ANCOVA model adjusting for planned treatment, baseline BMD value, machine type, and baseline BMD
                          value by machine type interaction.
PROGRAMMING               PROC MIXED DATA= ADBMD;
STATEMENTS                   CLASS TRTP BMMCHTYP;
                             MODEL PCHG = BASE BMMCHTYP BASE*BMMCHTYP TRTP;
                             LSMEANS TRTP / OM PDIFF = CONTROL (“Placebo”) CL;
                          RUN;




5
    The presentation formats used in this document for metadata are for the purposes of illustration of content only, and are not intended to imply any type of display standard or requirement.

© 2011 Clinical Data Interchange Standards Consortium, Inc. All rights reserved                                                                                                                 Page 17
FINAL                                                                                                                                                                                   December, 2011

                                                                                                       ADaM Examples in Commonly Used Statistical Analysis Methods Version 1.0



2.2 Example 2: Categorical Analysis (Analysis Dataset From Example 1)
As described in the SAP, a secondary efficacy analysis of the BMD at the Lumbar Spine endpoint is a comparison of the percentage in each treatment group of
the number of subjects with non-missing percent change data at Month 36 who had >3% change in BMD from Baseline. Fisher’s exact test is used to compare
the proportions between the two treatment groups using the ITT population, with no imputation for missing values, i.e., observed case (OC) data.
This categorical analysis example uses the analysis dataset described in Example 1 (i.e., ADBMD, see Section 2.1.1), illustrating how the same analysis dataset
can be used for multiple analyses.


2.2.1 Analysis Results
Table 2.2.1.1 Illustration of Analysis Display Layout for Categorical Analysis Example 6
                                                     Summary E.2
            Subjects with >3% Change from Baseline in Lumbar Spine Bone Mineral Density at Month 36
                                               (ITT Population, OC Data)
                                                                        Drug ABC           Placebo
                                                                         (N=xxx)           (N=xxx)
         Subjects completing Month 36                                                                xxx                              xxx
         Subjects with >3% change from baseline                                                  xxx (xx.x%)                      xxx (xx.x%)
         P-value [1]                                                                                                                x.xxxx

                                                                                                                                           Page 1 of 1
         N=ITT population
         OC Data are data as observed (i.e., no imputation for missing values)
         Subjects with missing BMD data at Month 36 are excluded from the analysis.
         [1] p-value computed using Fisher’s Exact Test.


In Table 2.2.1.2 the Result Identifier metadata element has intentionally been left blank because the results metadata describe the entire display; there is no need
to identify a specific element of the display. As mentioned in Section 1.4, the “result identifier” in the analysis results metadata can be blank, indicating that the
results being described are in the analysis display identified, not one specific portion of the display.
In Table 2.2.1.2 the Programming Statements metadata element has also intentionally been left blank, because the metadata producer elected to not include
programming statements. (Whether or not to include information in this metadata element is the producer’s decision. The example illustrated here is not



6
    The style of the display of the results of an analysis will be determined by the producer. The example is intended to illustrate content not appearance.

© 2011 Clinical Data Interchange Standards Consortium, Inc. All rights reserved                                                                                        Page 18
FINAL                                                                                                                                                          December, 2011

ADaM Examples in Commonly Used Statistical Analysis Methods Version 1.0


intended to imply a standard or requirement for when to leave the element blank.) As mentioned in Section 1.4, the “programming statements” in the analysis
results metadata can be blank, if the information provided in the other metadata elements is sufficient to describe the analysis performed.


Table 2.2.1.2 Analysis Results Metadata for Categorical Analysis Example 7
     Metadata Field                                                                          Metadata
DISPLAY IDENTIFIER        Summary E.2
DISPLAY NAME              Subjects with >3% Change from Baseline in Lumbar Spine Bone Mineral Density at Month 36 (ITT Population, OC Data)
RESULT IDENTIFIER         <intentionally left blank>
PARAM                     DXA BMD at Lumbar Spine (g/cm^2)
PARAMCD                   BMDLS
ANALYSIS VARIABLE         CRIT1FL
REASON                    Pre-specified in SAP
DATASET                   ADBMD
SELECTION CRITERIA        ITTFL=“Y” and PARAMCD=“BMDLS” and AVISIT=“MONTH 36” and ANL01FL=“Y” and DTYPE=” “ and PCHG not missing
DOCUMENTATION             See SAP Section XX for details.
                          Percentage in each treatment group of the number of subjects with non-missing percent change data at Visit 8 (i.e., AVISIT=”MONTH 36”) who
                          had >3% change in BMD from Baseline.
                          Subjects with missing change from baseline BMD data at Visit 8 are excluded from the analysis.
                          Number of subjects at MONTH 36 with CRIT1FL=“Y” divided by the number of subjects at MONTH 36 with non-missing PCHG. Fisher’s exact test
                          used for treatment comparison.
PROGRAMMING               <Intentionally left blank>
STATEMENTS




7
    The presentation formats used in this document for metadata are for the purposes of illustration of content only, and are not intended to imply any type of display standard or requirement.

© 2011 Clinical Data Interchange Standards Consortium, Inc. All rights reserved                                                                                                                Page 19
FINAL                                                                                                                                                                                  December, 2011

                                                                                                       ADaM Examples in Commonly Used Statistical Analysis Methods Version 1.0



2.3 Example 3: Repeated Measures Analysis (Analysis Dataset From Example 1)
The analysis described in this example is an ad hoc analysis. The likelihood based repeated measures analysis of BMD change from baseline at Month 24 uses
windowed values with no imputation for missing values (i.e., data as observed) from the ITT population.
This repeated measures analysis example uses the analysis dataset described in Example 1 (i.e., ADBMD, see Section 2.1.1), illustrating how the same analysis
dataset can be used for multiple analyses.


2.3.1 Analysis Results
Table 2.3.1.1 Illustration of Analysis Display Layout for Repeated Measures Analysis Example8
                                                      Summary E.3
                    Lumbar Spine Bone Mineral Density Percent Change From Baseline to Month 24
                                (ITT Population, OC Data, Repeated Measures Analysis)
                                   % Change From Baseline           Treatment Difference (Drug ABC – Placebo)
                                           LS Meana                95% CIa                   LS Meana               95% CIa                p-valuea
          Drug ABC (N = xxx)                  x.x                  (x.x, x.x)
          Placebo (N = xxx)                   x.x                  (x.x, x.x)                    x.x                (x.x, x.x)              x.xxxx

                                                                                                                 Page 1 of 1
         N = ITT population
         OC Data = Observed Cases Data (i.e., data as observed with no imputation for missing values)
         LS = Least squares
         a
           Based on mixed-effects model repeated measures analysis, adjusting for planned treatment, time and treatment by
         time interaction, baseline BMD value, and baseline BMD value by time interaction.




8
    The style of the display of the results of an analysis will be determined by the producer. The example is intended to illustrate content not appearance.

© 2011 Clinical Data Interchange Standards Consortium, Inc. All rights reserved                                                                                        Page 20
FINAL                                                                                                                                                          December, 2011

ADaM Examples in Commonly Used Statistical Analysis Methods Version 1.0


Table 2.3.1.2 Analysis Results Metadata for Repeated Measures Analysis Example 9
         Metadata Field                                                                                            Metadata
DISPLAY IDENTIFIER                   Summary E.3
DISPLAY NAME                         Lumbar Spine Bone Mineral Density Percent Change From Baseline to Month 24 (ITT Population, OC Data, Repeated Measures Analysis)
RESULT IDENTIFIER                    Treatment Difference (LSMean, confidence interval, p-value)
PARAM                                DXA BMD at Lumbar Spine (g/cm^2)
PARAMCD                              BMDLS
ANALYSIS VARIABLE                    PCHG
REASON                               ad hoc analysis
DATASET                              ADBMD
SELECTION CRITERIA                   AVISITN>2 and AVISITN<=6 and ITTFL=“Y” and DTYPE = “ “ and PARAMCD=“BMDLS” and ANL01FL=“Y”
DOCUMENTATION                        Likelihood based repeated measures analysis of BMD percent change from baseline at Month 24, includes LS Means at Week 24, comparison
                                     between treatment groups – windowed values with no imputation for missing values (i.e., data as observed)
                                     Adjusted means for the percent change from baseline at week 24 and comparisons between treatment groups at Week 24 using a repeated
                                     measures model with treatment group (as class variable); time (as class variable); treatment*time interaction; baseline score and baseline*time
                                     interaction terms; and an unstructured covariance matrix.
PROGRAMMING                          PROC MIXED DATA=ADBMD;
STATEMENTS                             CLASS USUBJID AVISITN TRTPN;
                                       MODEL PCHG = TRTPN AVISITN TRTPN*AVISITN BASE BASE*AVISITN / OUTP=PRED DDFM=KR;
                                       REPEATED AVISITN / SUBJECT=USUBJID TYPE=UN; LSMEANS TRTPN / DIFF CL;
                                     RUN;




9
    The presentation formats used in this document for metadata are for the purposes of illustration of content only, and are not intended to imply any type of display standard or requirement.

© 2011 Clinical Data Interchange Standards Consortium, Inc. All rights reserved                                                                                                                 Page 21
FINAL                                                                                                                                                                                   December, 2011

                                                                                  ADaM Examples in Commonly Used Statistical Analysis Methods Version 1.0



2.4 Example 4: Descriptive Statistics (Analysis Dataset From Example 1)
Another common analysis technique is to simply describe the data using summary statistics. Examples of descriptive statistics for a continuous endpoint are
mean, standard deviation, median, and range. Examples of descriptive statistics for a categorical endpoint are count and percentage. The BDS supports the
majority of analyses based on descriptive as well as inferential statistics.
The analysis illustrated here is a summary analysis presenting the mean, standard deviation, median, and range for the Lumbar Spine BMD for each treatment
group at each scheduled time point. In addition, a boxplot showing the distribution of the Lumbar Spine BMD at Month 36 is presented. These analyses use the
ITT population, with no imputation for missing values at any time point.
This descriptive statistics example uses the analysis dataset described in Example 1 (i.e., ADBMD, see Section 2.1.1), illustrating how the same analysis dataset
can be used for multiple analyses, including simple summary statistics and graphical displays. As part of the illustration, analysis results metadata have been
included. As stated in the ADaMIG, analysis results metadata are not needed or even advisable for every analysis included in a clinical study report or
submission. It is not expected that a descriptive analysis have analysis results metadata associated with it, though there certainly may situations where this would
occur (e.g., the descriptive analysis is the primary analysis, an automated system is used to generate results metadata).




© 2011 Clinical Data Interchange Standards Consortium, Inc. All rights reserved                                                                           Page 22
FINAL                                                                                                                                             December, 2011

ADaM Examples in Commonly Used Statistical Analysis Methods Version 1.0


2.4.1 Analysis Results
Table 2.4.1.1 Illustration of Analysis Display Layout for Descriptive Statistics Example10
                                                     Summary E.4
                         Summary of Lumbar Spine Bone Mineral Density (g/cm^2) Over Time
                                               (ITT Population, OC Data)
                                                                         Drug ABC              Placebo
                                                                          (N=xxx)              (N=xxx)
     Baseline
        n                                                                    xxx                  xxx
        Mean (SD)                                                     x.xxxx (x.xxxxx)     x.xxxx (x.xxxxx)
        Median                                                             x.xxxx               x.xxxx
        Min                                                                 x.xxx               x.xxx
        Max                                                                 x.xxx               x.xxx

         Month 6
            n                                                                                        xxx                              xxx
            Mean (SD)                                                                         x.xxxx (x.xxxxx)                 x.xxxx (x.xxxxx)
            Median                                                                                 x.xxxx                           x.xxxx
            Min                                                                                     x.xxx                           x.xxx
            Max                                                                                     x.xxx                           x.xxx
         etc….

                                                                                                                                           Page 1 of 1
         N=ITT population
         OC Data are data as observed (i.e., no imputation for missing values)




10
     The style of the display of the results of an analysis will be determined by the producer. The example is intended to illustrate content not appearance.

© 2011 Clinical Data Interchange Standards Consortium, Inc. All rights reserved                                                                                         Page 23
FINAL                                                                                                                                                           December, 2011

                                                                                                      ADaM Examples in Commonly Used Statistical Analysis Methods Version 1.0


Figure 2.4.1.1 Illustration of Analysis Display Graph for Descriptive Statistics Example11




11
     The type and style of graphical displays of analysis data will be determined by the producer. The example is intended to illustrate content not appearance or type.

© 2011 Clinical Data Interchange Standards Consortium, Inc. All rights reserved                                                                                                    Page 24
FINAL                                                                                                                                                                      December, 2011

ADaM Examples in Commonly Used Statistical Analysis Methods Version 1.0


The purpose of Table 2.4.1.2 and Table 2.4.1.3 is to provide an example of Analysis Results Metadata for analyses based on descriptive statistics. Neither is
intended to imply that the provision of Analysis Results Metadata is recommended for all output and displays.
In both Table 2.4.1.2 and Table 2.4.1.3, the Result Identifier metadata element has been intentionally left blank because the results metadata describe the entire
display; there is no need to identify a specific element of the display. As mentioned in Section 1.4, the “result identifier” in the analysis results metadata can be
blank, indicating that the results being described are in the analysis display identified, not one specific portion of the display. The programming statements
provided are based on the R software programming package.
Table 2.4.1.2 Analysis Results Metadata for Descriptive Statistics Tabular Display Example12
     Metadata Field                                                                     Metadata
DISPLAY IDENTIFIER        Summary E.4
DISPLAY NAME              Summary of Lumbar Spine Bone Mineral Density (g/cm^2) Over Time (ITT Population, OC Data)
RESULT IDENTIFIER         <intentionally left blank>
PARAM                     DXA BMD at Lumbar Spine (g/cm^2)
PARAMCD                   BMDLS
ANALYSIS VARIABLE         AVAL
REASON                    Pre-specified in SAP
DATASET                   ADBMD
SELECTION CRITERIA        ITTFL==“Y” & PARAMCD==“BMDLS” & ANL03FL==“Y”
DOCUMENTATION             See SAP Section XX for details.
                          Summary of Lumbar Spine Bone Mineral Density Measurements in each treatment group at Baseline, Month 6, Month 12, Month 18, Month 24,
                          Month 30, and Month 36.
PROGRAMMING               aggregate(AVAL,list(TRTP=TRTP,AVISIT=AVISIT),mean)
STATEMENTS                aggregate(AVAL,list(TRTP=TRTP,AVISIT=AVISIT),sd)
                          aggregate(AVAL,list(TRTP=TRTP,AVISIT=AVISIT),median)
                          aggregate(AVAL,list(TRTP=TRTP,AVISIT=AVISIT),min)
                          aggregate(AVAL,list(TRTP=TRTP,AVISIT=AVISIT),max)




12
     The presentation formats used in this document for metadata are for the purposes of illustration of content only, and are not intended to imply any type of display standard or requirement.

© 2011 Clinical Data Interchange Standards Consortium, Inc. All rights reserved                                                                                                                Page 25
FINAL                                                                                                                                                                                  December, 2011

                                                                                                      ADaM Examples in Commonly Used Statistical Analysis Methods Version 1.0


Table 2.4.1.3 Analysis Results Metadata for Descriptive Statistics Graphical Display Example13
     Metadata Field                                                                        Metadata
DISPLAY IDENTIFIER        Figure E.4.1
DISPLAY NAME              Boxplot of Lumbar Spine Bone Mineral Density at Month 36 (ITT Population, OC Data)
RESULT IDENTIFIER         <intentionally left blank>
PARAM                     DXA BMD at Lumbar Spine (g/cm^2)
PARAMCD                   BMDLS
ANALYSIS VARIABLE         AVAL
REASON                    Pre-specified in SAP
DATASET                   ADBMD
SELECTION CRITERIA        ITTFL==“Y” & PARAMCD==“BMDLS” & ANL03FL==“Y” & AVISIT==”MONTH 36”
DOCUMENTATION             See SAP Section XX for details.
                          Boxplot of Lumbar Spine Bone Mineral Density Measurements in each treatment group at Month 36.
PROGRAMMING               boxplot(AVAL~ TRTP,xlab="Treatment",ylab="DXA BMD at Lumbar Spine (g/cm^2)")
STATEMENTS                title(main="Figure E.4.1\nBoxplot of Lumbar Spine Bone Mineral Density at Month 36\n(ITT Population, OC Data)",font.main=4)




13
     The presentation formats used in this document for metadata are for the purposes of illustration of content only, and are not intended to imply any type of display standard or requirement.

© 2011 Clinical Data Interchange Standards Consortium, Inc. All rights reserved                                                                                                                Page 26
FINAL                                                                                                                                                                                  December, 2011

ADaM Examples in Commonly Used Statistical Analysis Methods Version 1.0



2.5 Example 5: Logistic Regression Analysis
This example illustrates an analysis dataset (ADPAIN) that supports a logistic regression including covariates. Included in this example is an illustration of the
use of the analysis criterion and criterion evaluation result variables CRITy and CRITyFL, and one way they can be used in supporting a categorical analysis.
The study assessed the effect of study drug during a single pain attack. The study measured pain severity (on a scale of 0=no pain to 3=severe pain) at baseline
(immediately prior to taking a single dose of randomized study drug) and then every 30 minutes for 2 hours, with the goal of assessing the difference in effect
between two treatments – Placebo and Drug XYZ. Factors that might influence the response include age, sex, and the subject’s pain level at baseline; therefore
they are included as terms in the model and as variables in the analysis dataset. The response variable is whether or not the subject achieved pain relief at 2 hours
post-baseline. Pain relief is defined as a reduction in pain from moderate or severe at baseline (i.e., pain severity of at least 2) to mild or no pain (i.e., pain
severity of no more than 1) at the specified time, with no use of rescue medication from baseline up to the specified time point. The source datasets (immediate
predecessors) for the analysis dataset in this example are assumed to be ADSL and an SDTM domain (represented as “XX” in the example) containing the
subject’s responses to questions regarding pain severity and rescue medication usage (Yes or No) at each time point. Missing data are imputed using LOCF.


2.5.1 Analysis Data Metadata
Table 2.5.1.1 Analysis Dataset Metadata for Logistic Regression Analysis Example14
 Dataset         Dataset Description      Dataset Location         Dataset Structure                                         Key Variables of         Class of                  Documentation
  Name                                                                                                                           Dataset              Dataset
ADPAIN      Pain severity analysis data  adpain.xpt          One record per subject per                                     STUDYID,                 BDS              adpain.sas
                                                             parameter per analysis time                                    USUBJID,
                                                             point                                                          PARAMCD, ATPT


Table 2.5.1.2 Analysis Variable Metadata for Logistic Regression Analysis Example 15
 Dataset     Parameter     Variable    Variable    Variable Display        Codelist /                                                         Source / Derivation
  Name       Identifier     Name        Label        Type     Format      Controlled
                                                                            Terms
ADPAIN      *ALL*        STUDYID     Study        text       $10                                                          ADSL.STUDYID
                                     Identifier
ADPAIN      *ALL*        USUBJID     Unique       text       $20                                                          ADSL.USUBJID
                                     Subject
                                     Identifier



14
     The presentation formats used in this document for metadata are for the purposes of illustration of content only, and are not intended to imply any type of display standard or requirement.
15
     The presentation formats used in this document for metadata are for the purposes of illustration of content only, and are not intended to imply any type of display standard or requirement.

© 2011 Clinical Data Interchange Standards Consortium, Inc. All rights reserved                                                                                                                 Page 27
FINAL                                                                                                                                                                                   December, 2011

                                                                                     ADaM Examples in Commonly Used Statistical Analysis Methods Version 1.0


Table 2.5.1.2 Analysis Variable Metadata for Logistic Regression Analysis Example 15
 Dataset     Parameter     Variable    Variable    Variable Display        Codelist /                                 Source / Derivation
  Name       Identifier     Name        Label        Type     Format       Controlled
                                                                             Terms
ADPAIN      *ALL*        TRTP        Planned      text       $10       Drug XYZ,                     ADSL.TRT01P
                                     Treatment                         Placebo
ADPAIN      *ALL*        ITTFL       Intent-To-   text       $1        Y, N                          ADSL.ITTFL
                                     Treatment
                                     Population
                                     Flag
ADPAIN      *ALL*        PARAM       Parameter text          $32       Pain Severity                 Populated with “Pain Severity” (XX.XXTEST) for the
                                                                                                     records pertaining to this analysis parameter.
ADPAIN       PARAMCD         PARAMCD         Parameter     text         $8        SEVERITY           Populated with ”Severity” for records corresponding to
                                             Code                                                    Pain Severity (based on XX.XXTESTCD)
ADPAIN       *ALL*           ATPT            Analysis      text         $20       BASELINE,          XX.XXTPT or the timepoint for the imputed AVAL
                                             Timepoint                            30 MIN,
                                                                                  1 HOUR,
                                                                                  90 MIN,
                                                                                  2 HOUR
ADPAIN       *ALL*           ATPTN           Analysis      integer      3.0       1=BASELINE,        XX.XXTPTNUM or the timepoint number for the
                                             Timepoint                            2=30 MIN,          imputed AVAL
                                             (N)                                  3=1 HOUR,
                                                                                  4=90 MIN,
                                                                                  5=2 HOUR
ADPAIN       *ALL*           ABLFL           Baseline      text         $1        Y                  “Y” when ADPAIN.ATPT=“BASELINE”
                                             Record
                                             Flag
ADPAIN       SEVERITY        AVAL            Analysis      integer      1.0       0=No Pain,         XX.XXSTRESN when XX.XXTEST=”Pain Severity”
                                             Value                                1=Mild Pain,       and XX.XXTPT=ATPT or an imputed value
                                                                                  2=Moderate Pain,   if XX.XXSTRESN is missing, set AVAL equal to the
                                                                                  3=Severe Pain      value for the previous post-baseline time point. If the
                                                                                                     previous timepoint is baseline, leave AVAL missing
ADPAIN       SEVERITY        AVALC           Analysis      text         $20       No Pain, Mild      XX.XXSTRESC when XX.XXTEST=”Pain Severity”
                                             Value (C)                            Pain, Moderate     and XX.XXTPT=ATPT or an imputed value
                                                                                  Pain, Severe       if XX.XXSTRESN is missing, set AVALC equal to the
                                                                                  Pain               value for the previous post-baseline time point. If the
                                                                                                     previous timepoint is baseline, leave AVALC missing



© 2011 Clinical Data Interchange Standards Consortium, Inc. All rights reserved                                                                                        Page 28
FINAL                                                                                                                                                          December, 2011

ADaM Examples in Commonly Used Statistical Analysis Methods Version 1.0


Table 2.5.1.2 Analysis Variable Metadata for Logistic Regression Analysis Example 15
 Dataset     Parameter     Variable    Variable    Variable Display        Codelist /                           Source / Derivation
  Name       Identifier     Name        Label        Type     Format       Controlled
                                                                             Terms
ADPAIN      SEVERITY     BASE        Baseline     integer    1.0       0=No Pain,               AVAL when ADPAIN.ABLFL=“Y”
                                     Value                             1=Mild Pain,
                                                                       2=Moderate Pain,
                                                                       3=Severe Pain
ADPAIN      SEVERITY     BASEC       Baseline     text       $20       No Pain, Mild            AVALC when ADPAIN.ABLFL=“Y”
                                     Value (C)                         Pain, Moderate
                                                                       Pain, Severe
                                                                       Pain
ADPAIN      SEVERITY     CRIT1       Analysis     text       $50       Pain Relief at 2         Populated with ”Pain Relief at 2 hour” when
                                     Criteria 1                        hour                     PARAMCD=”SEVERITY” and ATPT=”2 HOUR”
ADPAIN      SEVERITY     CRIT1FL     Criterion 1 text        $1        Y, N                     Null if CRIT1=” “
                                     Evaluation                                                 If CRIT1 not null, then set to “Y” or “N”:
                                     Result Flag                                                “Y” if ADPAIN.BASE>=2 AND ADPAIN.AVAL<=1 AND
                                                                                                ADPAIN.RESCUEFL=” “ and ABLFL = “ “
                                                                                                Else “N”
ADPAIN       *ALL*           AGE             Age           integer      3.0                     ADSL.AGE
ADPAIN       *ALL*           SEX             Sex           text         $1        M,            ADSL.SEX
                                                                                  F
ADPAIN       SEVERITY        DTYPE           Derivation    text         $5        LOCF          Populated with “LOCF” when the value of AVAL is
                                             Type                                               imputed using last observation carried forward:

ADPAIN       SEVERITY        RESCUEFL        Rescue        text         $1        Y             “Y” if XX.XXTEST=”Rescue Medication Used” and
                                             Medication                                         XX.XXTPT=ATPT and XX.XXSTRESC=”Y” or if
                                             Used Flag                                          ADPAIN.RESCUEFL = “Y” for previous time point for
                                                                                                this subject


2.5.2 Analysis Dataset
Table 2.5.2.1 is an illustration of the pain severity analysis dataset (ADPAIN) defined above. The analysis variable for this example is whether or not the criteria
for pain relief have been met (i.e., CRIT1FL). In this example, the approach illustrated for the CRITy and CRITyFL variables is to have the text string in CRIT1
identify the criterion being evaluated, and whether or not the criterion is satisfied is indicated by the value (“Y” or “N”) of the CRIT1FL variable. Therefore,
CRIT1 is populated for all relevant records within the parameter (i.e., those containing the 2 hour assessments), and valid values for CRIT1FL are “Y” and “N”.
The ADPAIN example describes some of the key variables and records included in the dataset.


© 2011 Clinical Data Interchange Standards Consortium, Inc. All rights reserved                                                                             Page 29
FINAL                                                                                                                                               December, 2011

                                                                                  ADaM Examples in Commonly Used Statistical Analysis Methods Version 1.0


Key points to note in the example are:
Rows 5,10,15:       The CRIT1 variables are populated only on these rows because the criterion is not relevant on rows not pertaining to the 2 hour time point, i.e.,
                    ATPT=”2 HOUR”.
Row 5:              This subject (Subject 101-001) has no missing values. CRIT1FL is Y on row 5 because BASE≥2 and AVAL≤1 and RESCUEFL are null.
Row 10:             Once the RESCUEFL is set to “Y” as for Subject 101-002 (Row 9), all successive rows for the subject will contain RESCUEFL=”Y”.
                    CRIT1FL is N because RESCUEFL=”Y” even though BASE=3 and AVAL=1.
Rows 12-13:         The measurements at “90 MIN” and “2 HOUR” are missing for Subject 101-003, therefore the records are imputed using LOCF method
                    (DTYPE=”LOCF”).




© 2011 Clinical Data Interchange Standards Consortium, Inc. All rights reserved                                                                            Page 30
FINAL                                                                                                                                              December, 2011

ADaM Examples in Commonly Used Statistical Analysis Methods Version 1.0


Table 2.5.2.1 Illustration of Analysis Dataset ADPAIN
Row STUDYID USUBJID TRTP ITTFL PARAM PARAMCD                 ATPT         ATPTN ABLFL AVAL AVALC BASE      BASEC CRIT1        CRIT1FL AGE SEX DTYPE RESCUEFL
1   AZY389 101-001 Drug Y      Pain     SEVERITY             BASELINE     1     Y     3    Severe 3        Severe                     34 M
                    XYZ        Severity                                                    Pain            Pain
2   AZY389 101-001 Drug Y      Pain     SEVERITY             30 MIN       2           2    Moderate 3      Severe                     34 M
                    XYZ        Severity                                                    Pain            Pain
3   AZY389 101-001 Drug Y      Pain     SEVERITY             1 HOUR       3           1    Mild Pain 3     Severe                     34 M
                    XYZ        Severity                                                                    Pain
4   AZY389 101-001 Drug Y      Pain     SEVERITY             90 MIN       4           1    Mild Pain 3     Severe                     34 M
                    XYZ        Severity                                                                    Pain
5   AZY389 101-001 Drug Y      Pain     SEVERITY             2 HOUR       5           0    No Pain   3     Severe Pain Relief Y       34 M
                    XYZ        Severity                                                                    Pain   at 2 hrs
6   AZY389 101-002 Place Y     Pain     SEVERITY             BASELINE     1       Y   3    Severe 3        Severe                     28 F
                    bo         Severity                                                    Pain            Pain
7   AZY389 101-002 Place Y     Pain     SEVERITY             30 MIN       2           3    Severe 3        Severe                     28 F
                    bo         Severity                                                    Pain            Pain
8   AZY389 101-002 Place Y     Pain     SEVERITY             1 HOUR       3           2    Moderate 3      Severe                     28 F
                    bo         Severity                                                    Pain            Pain
9   AZY389 101-002 Place Y     Pain     SEVERITY             90 MIN       4           2    Moderate 3      Severe                     28 F          Y
                    bo         Severity                                                    Pain            Pain
10 AZY389 101-002 Place Y      Pain     SEVERITY             2 HOUR       5           1    Mild Pain 3     Severe Pain Relief N       28 F          Y
                    bo         Severity                                                                    Pain   at 2 hrs
11 AZY389 101-003 Drug Y       Pain     SEVERITY             BASELINE     1       Y   3    Severe 3        Severe                     31 F
                    XYZ        Severity                                                    Pain            Pain
12 AZY389 101-003 Drug Y       Pain     SEVERITY             30 MIN       2           2    Moderate 3      Severe                     31 F
                    XYZ        Severity                                                    Pain            Pain
13 AZY389 101-003 Drug Y       Pain     SEVERITY             1 HOUR       3           1    Mild Pain 3     Severe                     31 F
                    XYZ        Severity                                                                    Pain
14 AZY389 101-003 Drug Y       Pain     SEVERITY             90 MIN       4           1    Mild Pain 3     Severe                     31 F    LOCF
                    XYZ        Severity                                                                    Pain
15 AZY389 101-003 Drug Y       Pain     SEVERITY             2 HOUR       5           1    Mild Pain 3     Severe Pain Relief Y       31 F    LOCF
                    XYZ        Severity                                                                    Pain   at 2 hrs



2.5.3 Analysis Results
The following data display illustrates the logistic regression analysis performed using ADPAIN as described above.
As described in the protocol and the SAP, the primary efficacy endpoint is the percentage of subjects with pain relief at 2 hours. A logistic regression analysis is
used to compare this percentage between the Drug XYZ and placebo treatment groups. The logistic regression model includes planned treatment, age, sex, and
baseline pain severity as independent variables and whether or not the subject achieved pain relief at 2 hours as the response variable. A subject is defined to

© 2011 Clinical Data Interchange Standards Consortium, Inc. All rights reserved                                                                            Page 31
FINAL                                                                                                                                              December, 2011

                                                                                                       ADaM Examples in Commonly Used Statistical Analysis Methods Version 1.0


have obtained pain relief if their baseline pain is moderate or severe (i.e., pain severity of at least 2) and the pain at the specified time point is mild or none (i.e.,
pain severity of no more than 1). The odds ratio and 95% confidence interval are presented.


Table 2.5.3.1 Illustration of Analysis Display Layout for Logistic Regression Analysis Example 16
                                           Summary E.5
                                       Pain Relief at 2 Hours
                               (ITT Population, LOGISTIC Model)
                                                              Placebo          Drug XYZ
                                                              (N=xxx)           (N=xxx)
     Number (%) with pain relief                            xx (xx.x%)         xx (xx.x%)
     Odds ratio                                                                    x.xx
     95% CI of odds ratio                                                      (x.xx,x.xx)
     p-value                                                                     x.xxxx

                                                                                         Page 1 of 1
         N=ITT population
         Note: Analysis is based on a logistic regression model adjusting for treatment, age, sex,
         and baseline pain severity.




16
     The style of the display of the results of an analysis will be determined by the producer. The example is intended to illustrate content not appearance.

© 2011 Clinical Data Interchange Standards Consortium, Inc. All rights reserved                                                                                         Page 32
FINAL                                                                                                                                                           December, 2011

ADaM Examples in Commonly Used Statistical Analysis Methods Version 1.0


Table 2.5.3.2 Analysis Results Metadata for Logistic Regression Analysis Example17
     Metadata Field                                                                          Metadata
DISPLAY IDENTIFIER        Summary E.5
DISPLAY NAME              Pain Relief at 2 Hours (ITT Population, LOGISTIC Model)
RESULT IDENTIFIER         <intentionally left blank>
PARAM                     Pain Severity
PARAMCD                   SEVERITY
ANALYSIS VARIABLE         CRIT1FL
REASON                    Primary efficacy analysis as pre-specified in SAP
DATASET                   ADPAIN
SELECTION CRITERIA        ITTFL=“Y” and PARAMCD=“SEVERITY” and ATPT=“2 HOUR”
DOCUMENTATION             Comparing pain relief at 2 hours for Drug XYZ versus placebo. See SAP Section XX for details. Program: t-relief-or-logistic.sas. Odds ratio and
                          95% CI are based on logistic model adjusting for planned treatment, age, sex, and baseline pain severity
PROGRAMMING               PROC LOGISTIC DATA= ADPAIN DESCENDING;
STATEMENTS                CLASS TRTP SEX BASE;
                          MODEL CRIT1FL (DESCENDING) = TRTP AGE SEX BASE /EXPB;
                          RUN;




17
     The presentation formats used in this document for metadata are for the purposes of illustration of content only, and are not intended to imply any type of display standard or requirement.

© 2011 Clinical Data Interchange Standards Consortium, Inc. All rights reserved                                                                                                                Page 33
FINAL                                                                                                                                                                                  December, 2011

                                                                                                     ADaM Examples in Commonly Used Statistical Analysis Methods Version 1.0



2.6 Example 6: Multivariate Analysis of Variance
This example illustrates an analysis dataset (ADMOOD) that contains subscale scores as well as a total score assessing mood. The analysis to be performed will
produce estimates of treatment effect for each subscale as well as an assessment of overall treatment effect (i.e., a test of the main effect of study drug on the
combined subscales). This example illustrates analysis results metadata for specific items on a summary table.
In the following example, mood is measured using a total mood disturbance score and six subscale scores. The instrument used is the Profile of Mood States
(POMS) Assessment form which contains 65 items rated on a 5-point Likert scale where 0=Not at all, 1=a little, 2=moderately, 3=quite a bit, and 4=extremely.
The six subscales that make up the factor analysis are as follows: tension-anxiety (9 items with total score ranging from 0 to 36), depression (15 items with total
score ranging from 0 to 60), anger-hostility (12 items with total score ranging from 0 to 48), vigor-activity (8 items with total score ranging from 0 to 32), fatigue
(7 items with total score ranging from 0 to 28), and confusion-bewilderment (7 items with total score ranging from 0 to 28). The total mood disturbance score
ranging from 0 to 200 is calculated by adding up tension-anxiety, depression, anger-hostility, fatigue, and confusion-bewilderment subscale scores and
subtracting the vigor subscale score. The analyses performed are based on the subscale and total scores, not on the individual item scores.
Occasionally, there may be a need to perform an analysis that requires multiple dependent variables. (In this context, “variable” refers to a term in a statistical
model.) In this type of situation, there is more than one (correlated) dependent variable and these dependent variables cannot simply be combined into one. The
researcher might want to test whether there are significant differences between groups on the combined dependent variables. There are many different
approaches to doing a multivariate analysis of variance. The ADaM Basic Data Structure (as shown below in Table 2.6.1.2) meets the needs for some of those
approaches (e.g., using PROC MIXED in SAS®18). Other approaches may require a structure where the multiple dependent variables are all on the same record
(row) in the dataset, which is not an ADaM-compliant BDS structure. In this example, the approach taken (not meant to imply a requirement or standard) is to
provide the ADaM-compliant BDS analysis dataset, accompanied by metadata describing the simple transposition of the dataset required for a more “horizontal”
structure, as illustrated in Table 2.6.3.3. Alternatively, the producer could opt to save the transposed dataset as an ADaM dataset that is not compliant with BDS
but fulfills the other requirements of an ADaM dataset. As stated in the ADaMIG, it is incumbent on the user of the ADaM to understand and appreciate when an
alternate structure for the analysis dataset is truly needed.
It should be noted that the following example is a simple one, for the purposes of illustration. If the values for the dependent variables are not all found in AVAL,
the transposition of the dataset would be more complicated. The source datasets (immediate predecessors) for the analysis dataset in this example are assumed to
be ADSL and the SDTM QS (Questionnaires) Findings Domain containing the subject’s responses to the mood questionnaire.




18
     SAS and all other SAS Institute Inc. product or service names are registered trademarks or trademarks of SAS Institute Inc. in the USA and other countries. ® indicates USA registration.

© 2011 Clinical Data Interchange Standards Consortium, Inc. All rights reserved                                                                                                              Page 34
FINAL                                                                                                                                                                                December, 2011

ADaM Examples in Commonly Used Statistical Analysis Methods Version 1.0


2.6.1 Analysis Data Metadata
Table 2.6.1.1 Analysis Dataset Metadata for Multivariate ANOVA Example19
 Dataset         Dataset Description      Dataset Location       Dataset Structure                                           Key Variables of         Class of                  Documentation
  Name                                                                                                                           Dataset              Dataset
ADMOOD Mood assessment analysis          admood.xpt        One record per subject per                                       STUDYID,                 BDS              admood.sas
            data                                           parameter per analysis visit                                     USUBJID,
                                                                                                                            PARAMCD, AVISIT


Table 2.6.1.2 Analysis Variable Metadata for Multivariate ANOVA Example 20
  Dataset      Parameter      Variable       Variable    Variable Display   Codelist / Controlled                                                              Source / Derivation
   Name        Identifier      Name           Label        Type    Format           Terms
ADMOOD        *ALL*        STUDYID        Study         text      $6                                                                     ADSL.STUDYID
                                          Identifier
ADMOOD        *ALL*        USUBJID        Unique        text      $10                                                                    ADSL.USUBJID
                                          Subject
                                          Identifier
ADMOOD        *ALL*        TRTP           Planned       text      $10      Placebo,                                                      ADSL.TRT01P
                                          Treatment                        Drug ZZZ
ADMOOD        *ALL*        TRTPN          Planned       integer   1.0      0 = Placebo,                                                  ADSL.TRT01PN
                                          Treatment                        1 = Drug ZZZ
                                          (N)
ADMOOD        *ALL*        ITTFL          Intent-To-    text      $1       Y, N                                                          ADSL.ITTFL
                                          Treat
                                          Population
                                          Flag




19
     The presentation formats used in this document for metadata are for the purposes of illustration of content only, and are not intended to imply any type of display standard or requirement.
20
     The presentation formats used in this document for metadata are for the purposes of illustration of content only, and are not intended to imply any type of display standard or requirement.

© 2011 Clinical Data Interchange Standards Consortium, Inc. All rights reserved                                                                                                                 Page 35
FINAL                                                                                                                                                                                   December, 2011

                                                                                        ADaM Examples in Commonly Used Statistical Analysis Methods Version 1.0


Table 2.6.1.2 Analysis Variable Metadata for Multivariate ANOVA Example 20
  Dataset      Parameter      Variable      Variable      Variable Display   Codelist / Controlled                                Source / Derivation
   Name        Identifier      Name           Label         Type    Format           Terms
ADMOOD        *ALL*        PARAM          Parameter      text      $50     Tension/Anxiety Total               For records created to contain the total scores populate
                                                                           Score,                              with the appropriate total score name.
                                                                           Depression/Rejection
                                                                           Total Score,
                                                                           Anger/Hostility Total
                                                                           Score,
                                                                           Vigor/Activity Total
                                                                           Score,
                                                                           Fatigue/Inertia Total
                                                                           Score,
                                                                           Confusion/Bewildermen
                                                                           t Total Score,
                                                                           Total Score
ADMOOD        PARAMCD      PARAMCD        Parameter      text      $8      ANXIETY,                            One-to-one correspondence with ADMOOD.PARAM
                                          Code                             DPRESS,
                                                                           ANGER,
                                                                           VIGOR,
                                                                           FATIGUE,
                                                                           CONFUS,
                                                                           TOTAL
ADMOOD        *ALL*        AVISIT         Analysis Visit text      $25     Baseline,                           QS.VISIT
                                                                           Week 6
ADMOOD        *ALL*        AVISITN        Analysis Visit integer   1.0     2 = Baseline,                       QS.VISITNUM
                                          (N)                              4 = Week 6
ADMOOD        *ALL*        ABLFL          Baseline       text      $1      Y                                   “Y” if record contains the baseline value, i.e., if
                                          Record Flag                                                          ADMOOD.AVISITN=2;
                                                                                                               Otherwise leave blank
ADMOOD          ANXIETY        AVAL              Analysis         integer         3.0                          Sum of the 9 tension-anxiety items (QS.QSSTRESN)
                                                 Value                                                         where QS.QSTESTCD has values of ANXIETY1-
                                                                                                               ANXIETY9 and ADMOOD.USUBJID=QS.USUBJID and
                                                                                                               ADMOOD.AVISIT=QS.VISIT
                                                                                                               Set to missing if more than 20% of the assessment items
                                                                                                               are missing




© 2011 Clinical Data Interchange Standards Consortium, Inc. All rights reserved                                                                                 Page 36
FINAL                                                                                                                                                   December, 2011

ADaM Examples in Commonly Used Statistical Analysis Methods Version 1.0


Table 2.6.1.2 Analysis Variable Metadata for Multivariate ANOVA Example 20
  Dataset      Parameter      Variable      Variable     Variable Display  Codelist / Controlled                     Source / Derivation
   Name        Identifier      Name           Label        Type    Format         Terms
ADMOOD        DPRESS       AVAL           Analysis      integer   3.0                              Sum of the 15 depression-rejection items
                                          Value                                                    (QS.QSSTRESN) where QS.QSTESTCD has values of
                                                                                                   DPRESS1-DPRESS15 and
                                                                                                   ADMOOD.USUBJID=QS.USUBJID and
                                                                                                   ADMOOD.AVISIT=QS.VISIT
                                                                                                   Set to missing if more than 20% of the assessment items
                                                                                                   are missing
ADMOOD          ANGER          AVAL              Analysis         integer         3.0              Sum of the 12 anger-hostility items (QS.QSSTRESN)
                                                 Value                                             where QS.QSTESTCD has values of ANGER1-ANGER12
                                                                                                   and ADMOOD.USUBJID=QS.USUBJID and
                                                                                                   ADMOOD.AVISIT=QS.VISIT
                                                                                                   Set to missing if more than 20% of the assessment items
                                                                                                   are missing
ADMOOD          VIGOR          AVAL              Analysis         integer         3.0              Sum of the 8 vigor-activity items (QS.QSSTRESN) where
                                                 Value                                             QS.QSTESTCD has values of VIGOR1-VIGOR8 and
                                                                                                   ADMOOD.USUBJID=QS.USUBJID and
                                                                                                   ADMOOD.AVISIT=QS.VISIT
                                                                                                   Set to missing if more than 20% of the assessment items
                                                                                                   are missing
ADMOOD          FATIGUE        AVAL              Analysis         integer         3.0              Sum of the 7 fatigue-inertia items (QS.QSSTRESN) where
                                                 Value                                             QS.QSTESTCD has values of FATIGUE1-FATIGUE7 and
                                                                                                   ADMOOD.USUBJID=QS.USUBJID and
                                                                                                   ADMOOD.AVISIT=QS.VISIT
                                                                                                   Set to missing if more than 20% of the assessment items
                                                                                                   are missing
ADMOOD          CONFUS         AVAL              Analysis         integer         3.0              Sum of the 7 confusion-bewilderment items
                                                 Value                                             (QS.QSSTRESN) where QS.QSTESTCD has values of
                                                                                                   CONFUS1-CONFUS7 and
                                                                                                   ADMOOD.USUBJID=QS.USUBJID and
                                                                                                   ADMOOD.AVISIT=QS.VISIT
                                                                                                   Set to missing if more than 20% of the assessment items
                                                                                                   are missing




© 2011 Clinical Data Interchange Standards Consortium, Inc. All rights reserved                                                                    Page 37
FINAL                                                                                                                                      December, 2011

                                                                                        ADaM Examples in Commonly Used Statistical Analysis Methods Version 1.0


Table 2.6.1.2 Analysis Variable Metadata for Multivariate ANOVA Example 20
  Dataset      Parameter      Variable      Variable     Variable Display  Codelist / Controlled                                 Source / Derivation
   Name        Identifier      Name           Label        Type    Format         Terms
ADMOOD        TOTAL        AVAL           Analysis      integer   3.0                                          Sum of the tension-anxiety (ANXIETY), depression
                                          Value                                                                (DPRESS), anger-hostility (ANGER), fatigue (FATIGUE),
                                                                                                               and confusion-bewilderment (CONFUS) subscales minus
                                                                                                               the vigor (VIGOR) subscale and
                                                                                                               ADMOOD.USUBJID=QS.USUBJID and
                                                                                                               ADMOOD.AVISIT=QS.VISIT
                                                                                                               Set to missing if more than 20% of the assessment items
                                                                                                               are missing
ADMOOD          *ALL*          BASE              Baseline         integer         3.0                          BASE=ADMOOD.AVAL where ADMOOD.ABLFL=“Y”
                                                 Value
ADMOOD          *ALL*          CHG               Change from      integer         4.0                          CHG=ADMOOD.AVAL-ADMOOD.BASE for post-baseline
                                                 Baseline                                                      visits



2.6.2 Analysis Dataset
Table 2.6.2.1 is an illustration of the analysis dataset (ADMOOD) defined above. The ADMOOD example describes some of the key variables and records
included in the dataset.
In this simple example, the records in the ADMOOD analysis dataset contain the subscale scores and the total score. The reasons for not including the individual
items were 1) as stated in the introduction to this example, the individual item scores are not analyzed as individual items, 2) as stated in the metadata, missing
data are handled in the algorithm for computing each subscale score, so there is no individual item imputation to be traced, and 3) it is possible to clearly identify
the records in the SDTM domain that are input to the calculations for the subscale scores based on variables in the analysis dataset as defined in the metadata.
Given these facts, and the fact that inclusion of the raw item scores would add another 65 records for every visit for each subject, the producer deemed it
appropriate to not retain the individual scores in the analysis dataset.




© 2011 Clinical Data Interchange Standards Consortium, Inc. All rights reserved                                                                                Page 38
FINAL                                                                                                                                                  December, 2011

 ADaM Examples in Commonly Used Statistical Analysis Methods Version 1.0


Table 2.6.2.1 Illustration of Analysis Dataset ADMOOD
Row   STUDYID   USUBJID     TRTP      TRTPN   ITTFL                  PARAM                 PARAMCD   AVISIT     AVISITN   ABLFL   AVAL   BASE   CHG
1     MXX123    101-001    Drug ZZZ   1       Y       Tension/Anxiety Total Score          ANXIETY   Baseline   2         Y       8      8
2     MXX123    101-001    Drug ZZZ   1       Y       Depression/Rejection Total Score     DPRESS    Baseline   2         Y       3      3
3     MXX123    101-001    Drug ZZZ   1       Y       Anger/Hostility Total Score          ANGER     Baseline   2         Y       4      4
4     MXX123    101-001    Drug ZZZ   1       Y       Vigor/Activity Total Score           VIGOR     Baseline   2         Y       8      8
5     MXX123    101-001    Drug ZZZ   1       Y       Fatigue/Inertia Total Score          FATIGUE   Baseline   2         Y       10     10
6     MXX123    101-001    Drug ZZZ   1       Y       Confusion/Bewilderment Total Score   CONFUS    Baseline   2         Y       4      4
7     MXX123    101-001    Drug ZZZ   1       Y       Total Score                          TOTAL     Baseline   2         Y       37     37
8     MXX123    101-001    Drug ZZZ   1       Y       Tension/Anxiety Total Score          ANXIETY   Week 6     4                 7      8      -1
9     MXX123    101-001    Drug ZZZ   1       Y       Depression/Rejection Total Score     DPRESS    Week 6     4                 5      3      2
10    MXX123    101-001    Drug ZZZ   1       Y       Anger/Hostility Total Score          ANGER     Week 6     4                 16     4      12
11    MXX123    101-001    Drug ZZZ   1       Y       Vigor/Activity Total Score           VIGOR     Week 6     4                 15     8      7
12    MXX123    101-001    Drug ZZZ   1       Y       Fatigue/Inertia Total Score          FATIGUE   Week 6     4                 9      10     -1
13    MXX123    101-001    Drug ZZZ   1       Y       Confusion/Bewilderment Total Score   CONFUS    Week 6     4                 3      4      -1
14    MXX123    101-001    Drug ZZZ   1       Y       Total Score                          TOTAL     Week 6     4                 55     37     18



 2.6.3 Analysis Results
 In Table 2.6.3.1, the mean change from baseline for each subscale is displayed. The p-value reflects a test for overall treatment effect (i.e., a test of the effect of
 study drug on the combined subscales). The example illustrates analysis results metadata for specific items on a summary table.




 © 2011 Clinical Data Interchange Standards Consortium, Inc. All rights reserved                                                                               Page 39
 FINAL                                                                                                                                                 December, 2011

                                                                                                       ADaM Examples in Commonly Used Statistical Analysis Methods Version 1.0


Table 2.6.3.1 Illustration of Analysis Display Layout for Multivariate ANOVA Example21
                                                   Summary E.6
       Multivariate Analysis of Variance Testing the Hypothesis of No Overall Treatment Effect at Week 6
                                                 (ITT Population)
                                                                                 Placebo        Drug ZZZ
     Week 6 Change from Baseline Effect Estimate (SE) [1]                       (N=xxx)           (N=xxx)
     Tension/Anxiety Total Score                                               x.xx (x.xx)      x.xx (x.xx)
     Depression/Rejection Total Score                                          x.xx (x.xx)      x.xx (x.xx)
     Anger/Hostility Total Score                                               x.xx (x.xx)      x.xx (x.xx)
     Vigor/Activity Total Score                                                x.xx (x.xx)      x.xx (x.xx)
     Fatigue/Inertia Total Score                                               x.xx (x.xx)      x.xx (x.xx)
     Confusion/Bewilderment Total Score                                        x.xx (x.xx)      x.xx (x.xx)

         Test for Overall Treatment Effect [2]
          Wilks’ Lambda                                                                                                                  x.xx
          p-value                                                                                                                       x.xxxx

                                                                                                            Page 1 of 1
         N=ITT Population
         [1] Mixed Model Repeated Measures Analysis
         [2] Wilks’ Lambda multivariate test of treatment effect, with the six mood subscale scores as the dependent
         variables in the model and treatment the only independent variable.


Table 2.6.3.2 and Table 2.6.3.3 provide analysis results metadata for the estimates of treatment effect on the subscales and for the test for overall treatment effect,
respectively. By specifying multiple values in PARAM and PARAMCD, the metadata are indicating that the results are provided for each of these analysis
parameters.
It should be noted that the analysis results metadata for the test for overall treatment effect are based on a BDS dataset, but some pre-processing (i.e., transpose of
the dataset in this example) is required to facilitate the analysis. Therefore, the dataset ADMOOD is not analysis-ready for the analysis described. This analysis
results metadata example is included to illustrate one approach to a situation such as this; it is not meant to imply a standard or requirement.




21
     The style of the display of the results of an analysis will be determined by the producer. The example is intended to illustrate content not appearance.

© 2011 Clinical Data Interchange Standards Consortium, Inc. All rights reserved                                                                                         Page 40
FINAL                                                                                                                                                           December, 2011

ADaM Examples in Commonly Used Statistical Analysis Methods Version 1.0


Table 2.6.3.2 Analysis Results Metadata for Multivariate ANOVA Example – Estimates of Treatment Effect on Subscales 22
     Metadata Field                                                                             Metadata
DISPLAY IDENTIFIER        Summary E.6
DISPLAY NAME              Multivariate Analysis of Variance Testing the Hypothesis of No Overall Treatment Effect at Week 6 (ITT Population)
RESULT IDENTIFIER         Estimates of Treatment Effect on Subscales
PARAM                     Tension/Anxiety Total Score
                          Depression/Rejection Total Score
                          Anger/Hostility Total Score
                          Vigor/Activity Total Score
                          Fatigue/Inertia Total Score
                          Confusion/Bewilderment Total Score
PARAMCD                   ANXIETY
                          DPRESS
                          ANGER
                          VIGOR
                          FATIGUE
                          CONFUS
ANALYSIS VARIABLE         CHG
REASON                    Secondary efficacy analysis as pre-specified in SAP
DATASET                   ADMOOD
SELECTION CRITERIA        ITTFL=“Y” and PARAMCD not =“TOTAL” and AVISITN=4
DOCUMENTATION             Multivariate Analysis of Variance of Effect at Week 6 (visit 4). See SAP Section XX for details. Program: t-mood-effect.sas
                          Estimates of Effect are the estimated regression coefficients obtained from PROC MIXED by using the S option on the model statement. The
                          METHOD=ML causes maximum likelihood methods to be used to fit the model. Class variable PARAMCD identifies the response. The
                          REPEATED statement specifies an unstructured covariance matrix among the responses. The interaction of PARAMCD and treatment group is
                          the independent variable.
PROGRAMMING               PROC MIXED DATA=ADMOOD;
STATEMENTS                  CLASS USUBJID PARAMCD TRTPN;
                            MODEL CHG = PARAMCD*TRTPN / NOINT NOTEST S ;
                            REPEATED PARAMCD / SUBJECT=USUBJID TYPE=UN;
                          RUN;




22
     The presentation formats used in this document for metadata are for the purposes of illustration of content only, and are not intended to imply any type of display standard or requirement.

© 2011 Clinical Data Interchange Standards Consortium, Inc. All rights reserved                                                                                                                 Page 41
FINAL                                                                                                                                                                                   December, 2011

                                                                                                      ADaM Examples in Commonly Used Statistical Analysis Methods Version 1.0


Table 2.6.3.3 Analysis Results Metadata for Multivariate ANOVA Example – Test for Overall Treatment Effect23
     Metadata Field                                                                           Metadata
DISPLAY IDENTIFIER        Summary E.6
DISPLAY NAME              Multivariate Analysis of Variance Testing the Hypothesis of No Overall Treatment Effect at Week 6 (ITT Population)
RESULT IDENTIFIER         Test for Overall Treatment Effect Considering All Subscales
PARAM                     Tension/Anxiety Total Score
                          Depression/Rejection Total Score
                          Anger/Hostility Total Score
                          Vigor/Activity Total Score
                          Fatigue/Inertia Total Score
                          Confusion/Bewilderment Total Score
PARAMCD                   ANXIETY
                          DPRESS
                          ANGER
                          VIGOR
                          FATIGUE
                          CONFUS
ANALYSIS VARIABLE         AVAL
REASON                    Secondary efficacy analysis as pre-specified in SAP
DATASET                   ADMOOD with the data transposed so that mood scale scores are all on one row for a specified subject
SELECTION CRITERIA        ITTFL=“Y” and PARAMCD not =“TOTAL” and AVISITN=4
DOCUMENTATION             Wilks’ Lambda multivariate test of treatment effect. See SAP Section XX for details. Program: t-mood-effect.sas
                          The MANOVA statement in PROC GLM is used to generate the result after first transposing ADMOOD. The six mood subscale scores are the
                          dependent variables in the model, with treatment being the only independent variable.
PROGRAMMING               PROC TRANSPOSE DATA=ADMOOD OUT=ADMOODHZ;
STATEMENTS                   VAR AVAL;
                             ID PARAMCD;
                             BY USUBJID TRTPN;
                          RUN;
                          PROC GLM DATA=ADMOODHZ;
                             CLASS TRTPN;
                             MODEL ANXIETY DPRESS ANGER VIGOR FATIGUE CONFUS = TRTPN / NOUNI;
                             MANOVA H=TRTPN;
                          RUN;




23
     The presentation formats used in this document for metadata are for the purposes of illustration of content only, and are not intended to imply any type of display standard or requirement.

© 2011 Clinical Data Interchange Standards Consortium, Inc. All rights reserved                                                                                                                Page 42
FINAL                                                                                                                                                                                  December, 2011

ADaM Examples in Commonly Used Statistical Analysis Methods Version 1.0


2.7 Example 7: Repeated Measures Analysis of a Crossover Study
This example illustrates a randomized, double-blinded, placebo controlled, 4-way crossover design study using a mixed effect model.
The primary criterion for evaluation is the measurement of forced expiratory volume in one second (FEV1) obtained during pulmonary function testing (PFT).
FEV1 measurements are collected from 1 hour pre-dose to 23 hours 50 minutes post-dose. The co-primary efficacy endpoints are the FEV1 AUC(0-12) response
and AUC(12-24) response after 6 weeks of treatment. FEV1 AUC is defined as the area under the FEV1 curve (AUC) normalized for time. It is calculated from
zero time to 12 h [FEV1 AUC(0-12)] and from 12 h to 24 h [FEV1 AUC(12-24)], respectively, using the trapezoidal rule divided by the corresponding duration
(i.e., 12 h) to give the results in liters.
This study includes 4 periods with three 14 day wash-out periods. In addition, both study and period baselines are defined to allow for sensitivity analyses. The
“study” baseline is defined as the average of two FEV1 measurements (i.e., -1 hour and -10 minute) prior to treatment at Visit 2 and to the administration of the
morning dose of randomized treatment. “Period” baselines are defined as the average of the two FEV1 measurements (i.e., -1 hour and -10 minute) at each
treatment period (i.e., Visits 2, 5, 8 and 11), prior to administration of the morning dose of randomized treatment. Table 2.7.1 describes the visit schedule,
periods, planned study day and calculated relative study day that are used to derive the Study and Period baselines.
Table 2.7.1 Trial Diagram of Visit Schedule and Baseline Derivations
                                        Baseline Relative to Study Start                           Baseline Relative to Period Start
                          Planned study day       Calculation of relative study day    Planned study day      Calculation of relative study day
 Visit       Period
                            for trial period               for trial period              for each period               for each period
   2            1                  1                               1                          1                                 1
   4            1                  43                Visit 4 date - Visit 2 date + 1          43                 Visit 4 date - Visit 2 date + 1
                                                               14 Day Washout period
   5            2                  57                Visit 5 date - Visit 2 date + 1          1                                 1
   7            2                  99                Visit 7 date - Visit 2 date + 1          43                 Visit 7 date - Visit 5 date + 1
                                                               14 Day Washout period
   8            3                 113                Visit 8 date - Visit 2 date + 1          1                                 1
  10            3                 155               Visit 10 date - Visit 2 date + 1          43                 Visit 10 date - Visit 8 date + 1
                                                               14 Day Washout period
  11            4                 169               Visit 11 date - Visit 2 date + 1          1                                 1
  13            4                 211               Visit 13 date - Visit 2 date + 1          43                Visit 13 date - Visit 11 date + 1




© 2011 Clinical Data Interchange Standards Consortium, Inc. All rights reserved                                                                             Page 43
FINAL                                                                                                                                               December, 2011

                                                                                  ADaM Examples in Commonly Used Statistical Analysis Methods Version 1.0


2.7.1 Analysis Data Metadata
For this example, three analysis datasets are illustrated: ADSL, ADFEV and ADFEVAUC. The ADSL is the required subject-level analysis dataset and is
included here to illustrate how the treatment and period variables are used at the subject level. The ADFEV dataset includes the individual FEV1 responses that
are collected during the study and imputed records. The ADFEVAUC dataset includes derived FEV1 AUC response data based on the ADFEV dataset. In this
example, a specific illustration of an analysis using ADFEV is not included. However, ADFEV is considered an analysis dataset and could be used for an array
of analyses (e.g., change from baseline, percent change from baseline, etc.).
In this example, TRTSDT and TRTEDT are taken from the DM domain while the TRxxSDT, TRxxEDT and corresponding time variables are taken from the SE
domain. It is expected in this example that TRTSDT=TR01SDT and TRTEDT=TR04EDT. There is no requirement implied that these variables must be taken
from the specified domains. The producer will determine the appropriate source for the variables (e.g., DM, EX, SE, DA) based on the study design and the way
the data is collected.
Table 2.7.1.1 Analysis Dataset Metadata for Repeated Measures Analysis of Crossover Example
  Dataset         Dataset Description     Dataset Location       Dataset Structure      Key Variables of             Class of        Documentation
   Name                                                                                     Dataset                  Dataset
ADSL          Subject demographic,       adsl.xpt          One record per subject      STUDYID,                     ADSL         adsl.sas
              baseline, and key                                                        USUBJID
              characteristics
ADFEV         Forced expired volume      adfev.xpt         One record per subject per  STUDYID,                     BDS          adfev.sas
              analysis data                                basetype per period per     USUBJID,
                                                           parameter per analysis time BASETYPE,
                                                           point                       APERIOD,
                                                                                       PARAMN, AVISIT,
                                                                                       ATPTN
ADFEVAUC Forced expired volume AUC adfevauc.xpt            One record per subject per  STUDYID,                     BDS          adfevauc.sas
              analysis data- for the AUC                   basetype per period per     USUBJID,
              (0-12 hours) and -the AUC                    parameter                   BASETYPE,
              (12-24 hours)                                                            APERIOD,
                                                                                       PARAMN




© 2011 Clinical Data Interchange Standards Consortium, Inc. All rights reserved                                                                         Page 44
FINAL                                                                                                                                           December, 2011

ADaM Examples in Commonly Used Statistical Analysis Methods Version 1.0


2.7.2 Analysis Variable Metadata and Analysis Dataset – ADSL

Table 2.7.2.1 Analysis Variable Metadata for Repeated Measures Analysis of Crossover Example - ADSL 24
  Dataset         Variable    Variable Label   Variable  Display         Codelist / Controlled Terms                                                          Source / Derivation
   Name            Name                          Type    Format
ADSL           STUDYID       Study Identifier text      $15                                                                                         DM.STUDYID
ADSL           USUBJID       Unique Subject   text      $15                                                                                         DM.USUBJID
                             Identifier
ADSL           SITEID        Study Site       text      $10                                                                                         DM.SITEID
                             Identifier
ADSL           INVNAM        Study            text      $10                                                                                         DM.INVNAM
                             Investigator
                             Name
ADSL           ARM           Description of   text      $60      DrugA/DrugB/DrugC/Placebo,                                                         DM.ARM
                             Planned Arm                         DrugB/DrugC/Placebo/DrugA,
                                                                 DrugC/Placebo/DrugA/DrugB,
                                                                 Placebo/DrugA/DrugB/DrugC
ADSL           TRT01P        Planned          text      $60      Drug A,                                                                            Based on the assigned treatment
                             Treatment for                       Drug B,                                                                            sequence order. This field will be
                             Period 01                           Drug C,                                                                            populated with one of four treatments:
                                                                 Placebo                                                                            “Drug A”, “Drug B”, “Drug C” or
                                                                                                                                                    “Placebo”, as defined for this subject
                                                                                                                                                    within this treatment period in
                                                                                                                                                    SE.ELEMENT
ADSL                 TRT02P             Planned                text            $60           Drug A,                                                Based on the assigned treatment
                                        Treatment for                                        Drug B,                                                sequence order. This field will be
                                        Period 02                                            Drug C,                                                populated with one of four treatments:
                                                                                             Placebo                                                Drug A, Drug B, Drug C or Placebo,
                                                                                                                                                    as defined for this subject within this
                                                                                                                                                    treatment period in SE.ELEMENT




24
     The presentation formats used in this document for metadata are for the purposes of illustration of content only, and are not intended to imply any type of display standard or requirement.

© 2011 Clinical Data Interchange Standards Consortium, Inc. All rights reserved                                                                                                                Page 45
FINAL                                                                                                                                                                                  December, 2011

                                                                                            ADaM Examples in Commonly Used Statistical Analysis Methods Version 1.0


Table 2.7.2.1 Analysis Variable Metadata for Repeated Measures Analysis of Crossover Example - ADSL 24
  Dataset        Variable     Variable Label  Variable  Display          Codelist / Controlled Terms                                Source / Derivation
   Name           Name                          Type    Format
ADSL           TRT03P        Planned         text      $60       Drug A,                                                   Based on the assigned treatment
                             Treatment for                       Drug B,                                                   sequence order. This field will be
                             Period 03                           Drug C,                                                   populated with one of four treatments:
                                                                 Placebo                                                   “Drug A”, “Drug B”, “Drug C” or
                                                                                                                           “Placebo”, as defined for this subject
                                                                                                                           within this treatment period in
                                                                                                                           SE.ELEMENT
ADSL            TRT04P            Planned             text         $60            Drug A,                                  Based on the assigned treatment
                                  Treatment for                                   Drug B,                                  sequence order. This field will be
                                  Period 04                                       Drug C,                                  populated with one of four treatments:
                                                                                  Placebo                                  “Drug A”, “Drug B”, “Drug C” or
                                                                                                                           “Placebo”, as defined for this subject
                                                                                                                           within this treatment period in
                                                                                                                           SE.ELEMENT
ADSL            TRTSEQP           Planned             text         $60            A-B-C-Placebo,                           Planned sequence of treatments
                                  Sequence of                                     B-C-Placebo-A,                           DM.ARMCD
                                  Treatments                                      C-Placebo-A-B,
                                                                                  Placebo-A-B-C,
ADSL            RANDDT            Date of             integer      YYMMD                                                   Numeric date of the following value:
                                  Randomization                    D10.                                                    DS.DSDTC where
                                                                                                                           DS.DSTERM=”RANDOMIZED”
ADSL            TRTSDT            Date of First       integer      YYMMD                                                   Numeric date of the following value:
                                  Exposure to                      D10.                                                    DM.RFSTDTC
                                  Treatment
ADSL            TRTSTM            Time of First       integer      TIME5.                                                  Numeric time of the following value:
                                  Exposure to                                                                              DM.RFSTDTC
                                  Treatment
ADSL            TRTEDT            Date of Last        integer      YYMMD                                                   Numeric date of the following value:
                                  Exposure to                      D10.                                                    DM.RFENDTC
                                  Treatment
ADSL            TRTETM            Time of Last        integer      TIME5.                                                  Numeric time of the following value:
                                  Exposure to                                                                              DM.RFENDTC
                                  Treatment




© 2011 Clinical Data Interchange Standards Consortium, Inc. All rights reserved                                                                                   Page 46
FINAL                                                                                                                                                     December, 2011

ADaM Examples in Commonly Used Statistical Analysis Methods Version 1.0


Table 2.7.2.1 Analysis Variable Metadata for Repeated Measures Analysis of Crossover Example - ADSL 24
  Dataset        Variable     Variable Label  Variable  Display          Codelist / Controlled Terms              Source / Derivation
   Name           Name                          Type    Format
ADSL           TR01SDT       Date of First   integer   YYMMD                                             Numeric date of first exposure to
                             Exposure in               D10.                                              treatment in period 01, from
                             Period 01                                                                   SE.SESTDTC
ADSL           TR01STM       Time of First   integer   TIME5.                                            Numeric time of first exposure to
                             Exposure in                                                                 treatment in period 01, from
                             Period 01                                                                   SE.SESTDTC
ADSL           TR01EDT       Date of Last    integer   YYMMD                                             Numeric date of last exposure to
                             Exposure in               D10.                                              treatment in period 01, from
                             Period 01                                                                   SE.SEENDTC
ADSL           TR01ETM       Time of Last    integer   TIME5.                                            Numeric time of last exposure to
                             Exposure in                                                                 treatment in period 01, from
                             Period 01                                                                   SE.SEENDTC
ADSL           TR02SDT       Date of First   integer   YYMMD                                             Numeric date of first exposure to
                             Exposure in               D10.                                              treatment in period 02, from
                             Period 02                                                                   SE.SESTDTC
ADSL           TR02STM       Time of First   integer   TIME5.                                            Numeric time of first exposure to
                             Exposure in                                                                 treatment in period 02, from
                             Period 02                                                                   SE.SESTDTC
ADSL           TR02EDT       Date of Last    integer   YYMMD                                             Numeric date of last exposure to
                             Exposure in               D 10.                                             treatment in period 02, from
                             Period 02                                                                   SE.SEENDTC
ADSL           TR02ETM       Time of Last    integer   TIME5.                                            Numeric time of last exposure to
                             Exposure in                                                                 treatment in period 02, from
                             Period 02                                                                   SE.SEENDTC
ADSL           TR03SDT       Date of First   integer   YYMMD                                             Numeric date of first exposure to
                             Exposure in               D10.                                              treatment in period 03, from
                             Period 03                                                                   SE.SESTDTC
ADSL           TR03STM       Time of First   integer   TIME5.                                            Numeric time of first exposure to
                             Exposure in                                                                 treatment in period 03, from
                             Period 03                                                                   SE.SESTDTC
ADSL           TR03EDT       Date of Last    integer   YYMMD                                             Numeric date of last exposure to
                             Exposure in               D10.                                              treatment in period 03, from
                             Period 03                                                                   SE.SEENDTC




© 2011 Clinical Data Interchange Standards Consortium, Inc. All rights reserved                                                                 Page 47
FINAL                                                                                                                                   December, 2011

                                                                                           ADaM Examples in Commonly Used Statistical Analysis Methods Version 1.0


Table 2.7.2.1 Analysis Variable Metadata for Repeated Measures Analysis of Crossover Example - ADSL 24
  Dataset        Variable     Variable Label   Variable  Display         Codelist / Controlled Terms                             Source / Derivation
   Name           Name                          Type     Format
ADSL           TR03ETM       Time of Last    integer    TIME5.                                                            Numeric time of last exposure to
                             Exposure in                                                                                  treatment in period 03, from
                             Period 03                                                                                    SE.SEENDTC
ADSL           TR04SDT       Date of First   integer    YYMMD                                                             Numeric date of first exposure to
                             Exposure in                D10.                                                              treatment in period 04, from
                             Period 04                                                                                    SE.SESTDTC
ADSL           TR04STM       Time of First   integer    TIME5.                                                            Numeric time of first exposure to
                             Exposure in                                                                                  treatment in period 04, from
                             Period 04                                                                                    SE.SESTDTC
ADSL           TR04EDT       Date of Last    integer    YYMMD                                                             Numeric date of last exposure to
                             Exposure in                D10.                                                              treatment in period 04, from
                             Period 04                                                                                    SE.SEENDTC
ADSL           TR04ETM       Time of Last    integer    TIME5.                                                            Numeric time of last exposure to
                             Exposure in                                                                                  treatment in period 04, from
                             Period 04                                                                                    SE.SEENDTC
ADSL           MHDUR         Duration of     float      8.1                                                               MH.MHDUR at MH.MHTERM=<Trial
                             COPD [years]                                                                                 Diagnosis>
ADSL           SMOKDC        Smoking History text       $20      Currently Smokes,                                        Currently Smokes if
                                                                 Ex-smoker                                                SU.SUTRT=”CIGARETTES” and
                                                                                                                          SU.SUENDTC=“ ”
                                                                                                                          Ex-Smoker if
                                                                                                                          SU.SUTRT=”CIGARETTES” and
                                                                                                                          SU.SUENDTC is not “ “ and numeric
                                                                                                                          version of SU.SUENDTC is prior to
                                                                                                                          DM.RFSTDTC
ADSL            SMYMDC            When Stopped        text         8                                                      Date portion of SU.SUENDTC where
                                  Smoking                                                                                 SU.SUTRT=”CIGARETTES”
ADSL            SMPKY             Smoking History     float        4.1                                                    SU.SUDOSE where
                                  - Pack Years                                                                            SU.SUTRT=”CIGARETTES”
ADSL            ALCCDC            Alcohol History     text         $20            Drink – no interf.,                     “Drink – no interf.” if
                                                                                  Non-drinker                             SU.SUTRT=”ALCOHOL” and
                                                                                                                          SU.SUENRTPT=“ONGOING”
                                                                                                                          “Non-Drinker” if
                                                                                                                          SU.SUTRT=”ALCOHOL” and
                                                                                                                          SU.SUOCCUR =”N”


© 2011 Clinical Data Interchange Standards Consortium, Inc. All rights reserved                                                                                Page 48
FINAL                                                                                                                                                  December, 2011

ADaM Examples in Commonly Used Statistical Analysis Methods Version 1.0


Table 2.7.2.1 Analysis Variable Metadata for Repeated Measures Analysis of Crossover Example - ADSL 24
  Dataset        Variable     Variable Label  Variable  Display          Codelist / Controlled Terms                           Source / Derivation
   Name           Name                          Type    Format
ADSL           HEIGHTBL      Height at       integer   8                                                              The last available of VS.VSSTRESN
                             Baseline (cm)                                                                            for VS.VSTESTCD=“HEIGHT” before
                                                                                                                      or on the first dose date
                                                                                                                      (ADSL.TRTSDT)
ADSL            WEIGHTBL          Weight at           float        8                                                  The last available of VS.VSSTRESN
                                  Baseline (kg)                                                                       for VS.VSTESTCD=“WEIGHT” before
                                                                                                                      or on the first dose date
                                                                                                                      (ADSL.TRTSDT)
ADSL            AGE               Age                 integer      8                                                  DM.AGE
ADSL            AGEU              Age Units           text         $4             Years                               DM.AGEU
ADSL            SEXN              Sex (N)             integer      1              1= Male,                            Numeric value of DM.SEX
                                                                                  2= Female
ADSL            SEX               Sex                 text         $1             M, F                                DM.SEX
ADSL            RACE              Race                text         $40            AMERICAN INDIAN OR ALASKA NATIVE,   DM.RACE
                                                                                  ASIAN,
                                                                                  BLACK OR AFRICAN AMERICAN,
                                                                                  NATIVE HAWAIIAN OR OTHER PACIFIC
                                                                                  ISLANDER,
                                                                                  WHITE
ADSL            COUNTRY           Country             text         $10            USA                                 DM.COUNTRY
ADSL            SAFFL             Safety              text         $2             N, Y                                All treated subjects will be included in
                                  Population Flag                                                                     the safety set.
ADSL            FASFL             Full Analysis Set   text         $2             N, Y                                All subjects with baseline data and
                                  Population Flag                                                                     any evaluable post-dosing data for the
                                                                                                                      first co-primary endpoint will be
                                                                                                                      included in the full analysis set.

Rows 1-4:           Include treatment variables for each period on subject level.
                    Include key baseline variables (e.g., SEX, RACE, SMOKDC (Smoking history), SMPKY (Smoking history - pack years)) for chronic
                    obstructive pulmonary disease (COPD).




© 2011 Clinical Data Interchange Standards Consortium, Inc. All rights reserved                                                                               Page 49
FINAL                                                                                                                                                 December, 2011

                                                                                                      ADaM Examples in Commonly Used Statistical Analysis Methods Version 1.0


Table 2.7.2.2 Illustration of Analysis Dataset ADSL
Row       STUDYID       USUBJID      SITEID      INVNAM                  ARM                   TRT01P      TRT02P       TRT03P      TRT04P        TRTSEQP           RANDDT         TRTSDT           TRTSTM
1         501           501-001      XYZ001      Smith        DrugA/DrugB/DrugC/Placebo        Drug A      Drug B       Drug C      Placebo     A-B-C-Placebo      2009-09-03     2009-09-03        7:45
2         501           501-002      XYZ002      Jones        DrugB/DrugC/Placebo/DrugA        Drug B      Drug C       Placebo     Drug A      B-C-Placebo-A      2009-09-02     2009-09-02        8:00
3         501           501-003      XYZ004      Adam         DrugC/Placebo/DrugA/DrugB        Drug C      Placebo      Drug A      Drug B      C-Placebo-A-B      2009-09-09     2009-09-09        8:26
4         501           501-004      XYZ006      Wills        Placebo/DrugA/DrugB/DrugC        Placebo     Drug A       Drug B      Drug C      Placebo-A-B-C      2009-09-02     2009-09-02        8:35

Row TRTEDT TRTETM TR01SDT TR01STM TR01EDT TR01ETM TR02SDT TR02STM TR02EDT TR02ETM TR03SDT TR03STM TR03EDT TR03ETM TR04SDT
1   2010-04-02 7:56 2009-09-03 7:45 2009-10-16 7:49 2009-10-29 7:50 2009-12-11 7:49 2009-12-24 7:50 2010-02-05 7:49 2010-02-18
2   2010-04-01 8:39 2009-09-02 8:00 2009-10-15 8:04 2009-10-28 8:05 2009-12-10 7:59 2009-12-23 8:00 2010-02-04 7:59 2010-02-17
3   2010-04-08 8:56 2009-09-09 8:26 2009-10-22 8:19 2009-11-04 8:20 2009-12-17 8:09 2009-12-30 8:10 2010-02-11 8:09 2010-02-24
4   2010-04-01 8:35 2009-09-02 8:35 2009-10-15 8:25 2009-10-28 8:26 2009-12-10 8:04 2009-12-23 8:05 2010-02-04 8:34 2010-02-17


Row TR04STM TR04EDT TR04ETM MHDUR     SMOKDC       SMYMDC SMPKY    ALCCDC          HEIGHTBL WEIGHTBL AGE AGEU SEXN SEX RACE SAFFL FASFL
1   7:40    2010-04-02 7:55 1.8   Currently Smokes        32    Drink – no interf. 157      59.0     47 Years 1    M WHITE Y      Y
2   8:00    2010-04-01 8:12 2.0   Ex-smoker        1995   30    Non-drinker        170      192.8    50 Years 2    F   ASIAN Y    Y
3   8:10    2010-04-08 8:22 3.0   Currently Smokes        51    Drink – no interf. 178      72.6     69 Years 1    M WHITE Y      Y
4   8:35    2010-04-01 8:11 8.0   Ex-smoker        2005   44    Non-drinker        180      33.9     57 Years 1    M WHITE Y      Y




2.7.3 Analysis Variable Metadata and Analysis Dataset – BDS Datasets
For this trial, the producer could create one analysis dataset that includes the FEV1 measurements, imputed FEV1 measurements for missing data and derived
FEV1 AUC measurements. Alternatively, the producer could create two analysis datasets. The first analysis dataset includes the FEV1 measurements and the
imputed FEV1 measurements for missing data. The second analysis dataset includes the derived FEV1 AUC measurements. The latter approach is illustrated
below. The following examples describe the content of the ADFEV and ADFEVAUC analysis datasets.
Table 2.7.3.1 is an illustration of the metadata for the ADFEV analysis dataset. Extra variables may be included so that additional analyses could be performed.



Table 2.7.3.1 Analysis Variable Metadata for Repeated Measures Analysis of Crossover Example - ADFEV 25
  Dataset      Parameter     Variable       Variable    Variable   Display      Codelist / Controlled Terms                                                           Source / Derivation
   Name        Identifier      Name          Label       Type      Format
ADFEV         *ALL*        STUDYID       Study         text      $15                                                                                   ADSL.STUDYID
                                         Identifier



25
     The presentation formats used in this document for metadata are for the purposes of illustration of content only, and are not intended to imply any type of display standard or requirement.

© 2011 Clinical Data Interchange Standards Consortium, Inc. All rights reserved                                                                                                                Page 50
FINAL                                                                                                                                                                                  December, 2011

ADaM Examples in Commonly Used Statistical Analysis Methods Version 1.0


Table 2.7.3.1 Analysis Variable Metadata for Repeated Measures Analysis of Crossover Example - ADFEV 25
  Dataset      Parameter      Variable      Variable    Variable   Display      Codelist / Controlled Terms                       Source / Derivation
   Name        Identifier      Name          Label       Type      Format
ADFEV         *ALL*        USUBJID       Unique        text      $20                                                 ADSL.USUBJID
                                         Subject
                                         Identifier
ADFEV         *ALL*        SITEID        Study Site    text      $10                                                 ADSL.SITEID
                                         Identifier
ADFEV         *ALL*        BASETYPE      Baseline Type text      $40          Study,                                 BASETYPE is “Study” for records using the
                                                                              Period 1,                              study baseline (i.e., the baseline record at
                                                                              Period 2,                              treatment period 1)
                                                                              Period 3,                              BASETYPE is the appropriate period for
                                                                              Period 4                               records using the period baselines for each
                                                                                                                     treatment period
ADFEV           *ALL*          PARAM             Parameter        text            $60   Forced expired volume in 1   Populated with ”Forced expired volume in 1
                                                                                        second [L]                   second [L]” (based on XX.XXTEST) for the
                                                                                                                     records pertaining to this analysis parameter.
ADFEV           PARAMCD        PARAMCD           Parameter        text            $8    FEV1                         Populated with ”FEV1” for records
                                                 Code                                                                corresponding to FEV1 (based on
                                                                                                                     XX.XXTESTCD)
ADFEV           FEV1           PARAMN            Parameter (N)    integer         8     1=FEV1                       Map ADFEV.PARAM to PARAMN - Numeric
                                                                                                                     version of the PARAM
ADFEV           *ALL*          AVISIT            Analysis Visit   text            $11   Visit 1,                     XX.VISIT or the analysis visit for the imputed
                                                                                        Visit 2,                     AVAL
                                                                                        Visit 3,
                                                                                        Visit 4,
                                                                                        Visit 5,
                                                                                        Visit 6,
                                                                                        Visit 7,
                                                                                        Visit 8,
                                                                                        Visit 9,
                                                                                        Visit 10,
                                                                                        Visit 11,
                                                                                        Visit 12,
                                                                                        Visit 13,
                                                                                        Visit 14




© 2011 Clinical Data Interchange Standards Consortium, Inc. All rights reserved                                                                           Page 51
FINAL                                                                                                                                             December, 2011

                                                                                  ADaM Examples in Commonly Used Statistical Analysis Methods Version 1.0


Table 2.7.3.1 Analysis Variable Metadata for Repeated Measures Analysis of Crossover Example - ADFEV 25
  Dataset      Parameter     Variable       Variable    Variable   Display      Codelist / Controlled Terms                   Source / Derivation
   Name        Identifier      Name          Label       Type      Format
ADFEV         *ALL*        ATPT          Analysis      text      $40          1 hour pre-dose,                    XX.XXTPT or the timepoint for the imputed
                                         Timepoint                            30 minutes pre-dose,                AVAL
                                                                              10 minutes pre-dose,
                                                                              Pre-dose average,
                                                                              30 minutes post-dose,
                                                                              1 hour post-dose,
                                                                              2 hours post-dose,
                                                                              3 hours post-dose,
                                                                              4 hours post-dose,
                                                                              6 hours post-dose,
                                                                              8 hours post-dose,
                                                                              10 hours post-dose,
                                                                              11 hours 50 minutes post-dose,
                                                                              12 hours 30 minutes post-dose,
                                                                              13 hours post-dose,
                                                                              14 hours post-dose,
                                                                              22 hours post-dose,
                                                                              23 hours post-dose,
                                                                              23 hours 50 minutes post-dose




© 2011 Clinical Data Interchange Standards Consortium, Inc. All rights reserved                                                                      Page 52
FINAL                                                                                                                                        December, 2011

ADaM Examples in Commonly Used Statistical Analysis Methods Version 1.0


Table 2.7.3.1 Analysis Variable Metadata for Repeated Measures Analysis of Crossover Example - ADFEV 25
  Dataset      Parameter     Variable       Variable    Variable   Display      Codelist / Controlled Terms                 Source / Derivation
   Name        Identifier      Name          Label        Type     Format
ADFEV         *ALL*        ATPTN         Analysis      integer   TIME8.       -1:00:00,                       XX.XXTPTNUM or the timepoint number for
                                         Timepoint(N)                         -0:30:00,                       the imputed AVAL
                                                                              -0:10:00,
                                                                               0:00:00,
                                                                               0:30:00,
                                                                               1:00:00,
                                                                               2:00:00,
                                                                               3:00:00,
                                                                               4:00:00,
                                                                               6:00:00,
                                                                               8:00:00,
                                                                              10:00:00,
                                                                              11:50:00,
                                                                              12:30:00,
                                                                              13:00:00,
                                                                              14:00:00,
                                                                              22:00:00,
                                                                              23:00:00,
                                                                              23:50:00
ADFEV         *ALL*        ATM           Analysis Time integer   TIME8.                                       Numeric time portion of XX.XXDTC
ADFEV         *ALL*        TRTP          Planned       text      $15          Drug A,                         If ADFEV.APERIODC=”Period 1” then TRTP=
                                         Treatment                            Drug B,                         ADSL.TRT01P
                                                                              Drug C,                         If ADFEV.APERIODC=”Period 2” then TRTP=
                                                                              Placebo                         ADSL.TRT02P
                                                                                                              If ADFEV.APERIODC=”Period 3” then TRTP=
                                                                                                              ADSL.TRT03P
                                                                                                              If ADFEV.APERIODC=”Period 4” then TRTP=
                                                                                                              ADSL.TRT04P
ADFEV           *ALL*          APERIOD           Period           integer         8     1= Period 1,          Numeric version of ADFEV.APERIODC
                                                                                        2= Period 2,
                                                                                        3= Period 3,
                                                                                        4= Period 4
ADFEV           *ALL*          APERIODC          Period (C)       text            $40   Period 1,             “Period 1” if VISIT is 2 to 4, “Period 2” if VISIT
                                                                                        Period 2,             is 5 to 7, “Period 3” if VISIT is 8 to 10, “Period
                                                                                        Period 3,             4” if VISIT is 11 to 13
                                                                                        Period 4

© 2011 Clinical Data Interchange Standards Consortium, Inc. All rights reserved                                                                      Page 53
FINAL                                                                                                                                        December, 2011

                                                                                            ADaM Examples in Commonly Used Statistical Analysis Methods Version 1.0


Table 2.7.3.1 Analysis Variable Metadata for Repeated Measures Analysis of Crossover Example - ADFEV 25
  Dataset      Parameter     Variable       Variable    Variable   Display      Codelist / Controlled Terms                              Source / Derivation
   Name        Identifier      Name          Label        Type     Format
ADFEV         *ALL*        TRTSEQP       Planned       text      $60          A-B-C-Placebo,                                ADSL.TRTSEQP
                                         Sequence of                          B-C-Placebo-A,
                                         Treatments                           C-Placebo-A-B,
                                                                              Placebo-A-B-C
ADFEV         FEV1         AVAL          Analysis      float     Best12.                                                    FEV1 measurements collected from 1 hour
                                         Value                                                                              pre-dose to 23 hours 50 minutes post-dose;
                                                                                                                            numeric version of XX.XXSTRESN or an
                                                                                                                            imputed value
                                                                                                                            Imputation methods:
                                                                                                                            Create a new record to contain the average of
                                                                                                                            the two pre-dose values. (“AVERAGE”)
                                                                                                                            For subjects taking a short-acting beta agonist
                                                                                                                            (SABA) or short-acting anticholinergic (SAMA)
                                                                                                                            as rescue medication, any observations on
                                                                                                                            and for eight hours after the time of the rescue
                                                                                                                            medication will be set to missing and imputed
                                                                                                                            by the least favorable observation at that visit
                                                                                                                            prior to the time of rescue medication
                                                                                                                            administration (“WOCFWV”: Worst observation
                                                                                                                            carried forward within visit)
                                                                                                                            If there are non-missing data before and after
                                                                                                                            the missing data, the missing data will be
                                                                                                                            imputed using linear interpolation taking time
                                                                                                                            of the measurement into account
                                                                                                                            (“INTERPOL”: Linear interpolation)
                                                                                                                            If there are no observed data after the missing
                                                                                                                            data and it is the first visit of a period the
                                                                                                                            missing data will be imputed using last
                                                                                                                            observation carried forward. (“LOCF”: Last
                                                                                                                            observation carried forward)
ADFEV           *ALL*          BASE              Baseline         float           Best12.                                   BASE=ADFEV.AVAL where
                                                 Value                                                                      ADFEV.ABLFL=“Y”




© 2011 Clinical Data Interchange Standards Consortium, Inc. All rights reserved                                                                                  Page 54
FINAL                                                                                                                                                    December, 2011

ADaM Examples in Commonly Used Statistical Analysis Methods Version 1.0


Table 2.7.3.1 Analysis Variable Metadata for Repeated Measures Analysis of Crossover Example - ADFEV 25
  Dataset      Parameter     Variable      Variable     Variable    Display     Codelist / Controlled Terms               Source / Derivation
   Name        Identifier      Name          Label       Type       Format
ADFEV         FEV1         ABLFL         Baseline      text      $1           Y                               If ADFEV.BASETYPE=“Study” &
                                         Record Flag                                                          ADFEV.DTYPE=“AVERAGE” &
                                                                                                              ADFEV.APERIOD=1 then ABLFL=“Y”

                                                                                                              If the first 6 characters of
                                                                                                              ADFEV.BASETYPE=“Period” &
                                                                                                              ADFEV.DTYPE=“AVERAGE” &
                                                                                                              ADFEV.APERIOD in (1,2,3,4) then ABLFL=“Y”
ADFEV           *ALL*          CHG               Change from      float           Best12.                     CHG=ADFEV.AVAL-ADFEV.BASE
                                                 Baseline
ADFEV           *ALL*          PCHG              Percent          float           Best12.                     PCHG=((ADFEV.AVAL-
                                                 Change from                                                  ADFEV.BASE)/ADFEV.BASE)*100
                                                 Baseline
ADFEV           FEV1           DTYPE             Derivation       text            $40         AVERAGE,        Populated with imputation method used when
                                                 Type                                         WOCFWV,         the value of AVAL is imputed
                                                                                              INTERPOL,
                                                                                              LOCF
ADFEV           *ALL*          TRTSDT            Date of First    integer         yymmdd10.                   ADSL.TRTSDT
                                                 Exposure to
                                                 Treatment
ADFEV           *ALL*          ADT               Analysis Date    integer         yymmdd10.                   Numeric date of the following value:
                                                                                                              XX.XXDTC
ADFEV           *ALL*          ADY               Analysis         integer         3.0                         If ADFEV.BASETYPE=”Study” then If
                                                 Relative Day                                                 ADFEV.TRTSDT less than or equal to
                                                                                                              ADFEV.ADT then ADY= ADFEV.ADT -
                                                                                                              ADFEV.TRTSDT+1 else ADY= ADFEV.ADT -
                                                                                                              ADFEV.TRTSDT

